A35EI6GDSC0EY8:392CY0QWG1R201SSYXUZROSTUOD4IP,0,1525298561277,"{""internal_node_id"": ""0.0-0.0"", ""time_elapsed"": 26021, ""trial_index"": 0, ""view_history"": ""[{\""page_index\"":0,\""viewing_time\"":7312},{\""page_index\"":1,\""viewing_time\"":11771},{\""page_index\"":2,\""viewing_time\"":6937}]"", ""rt"": 26021, ""trial_type"": ""instructions""}"
A35EI6GDSC0EY8:392CY0QWG1R201SSYXUZROSTUOD4IP,1,1525298597574,"{""internal_node_id"": ""0.0-1.0"", ""time_elapsed"": 62319, ""trial_index"": 1, ""responses"": {""Q0"": ""2987684""}, ""rt"": 35284, ""trial_type"": ""survey-text-force""}"
A35EI6GDSC0EY8:392CY0QWG1R201SSYXUZROSTUOD4IP,2,1525298604896,"{""internal_node_id"": ""0.0-2.0"", ""button_pressed"": 0, ""time_elapsed"": 69641, ""trial_index"": 2, ""rt"": 6313, ""stimulus"": ""\n\t\t\t\t<h1>Instructions Complete</h1>\n\n\t\t\t\tYou're now ready to begin seeing robots and predicting where they are from.\n\t\t\t\tYou will see 18 robots in total.\n\t\t\t\tRemember, you earn one cent for each correct prediction. Good luck!\n\t\t\t"", ""trial_type"": ""button-response""}"
A35EI6GDSC0EY8:392CY0QWG1R201SSYXUZROSTUOD4IP,3,1525298612811,"{""internal_node_id"": ""0.0-3.0-7.0"", ""color"": ""blue"", ""time_elapsed"": 77556, ""trial_index"": 3, ""rt"": 3901, ""correct"": false, ""group"": ""kizik"", ""response"": ""d"", ""trial_type"": ""robot""}"
A35EI6GDSC0EY8:392CY0QWG1R201SSYXUZROSTUOD4IP,4,1525298619632,"{""internal_node_id"": ""0.0-3.0-8.0"", ""color"": ""blue"", ""time_elapsed"": 84377, ""trial_index"": 4, ""rt"": 2810, ""correct"": false, ""group"": ""daxby"", ""response"": ""k"", ""trial_type"": ""robot""}"
A35EI6GDSC0EY8:392CY0QWG1R201SSYXUZROSTUOD4IP,5,1525298625890,"{""internal_node_id"": ""0.0-3.0-5.0"", ""color"": ""blue"", ""time_elapsed"": 90635, ""trial_index"": 5, ""rt"": 2250, ""correct"": false, ""group"": ""kizik"", ""response"": ""d"", ""trial_type"": ""robot""}"
A35EI6GDSC0EY8:392CY0QWG1R201SSYXUZROSTUOD4IP,6,1525298631140,"{""internal_node_id"": ""0.0-3.0-1.0"", ""color"": ""blue"", ""time_elapsed"": 95885, ""trial_index"": 6, ""rt"": 1243, ""correct"": true, ""group"": ""daxby"", ""response"": ""d"", ""trial_type"": ""robot""}"
A35EI6GDSC0EY8:392CY0QWG1R201SSYXUZROSTUOD4IP,7,1525298637795,"{""internal_node_id"": ""0.0-3.0-3.0"", ""color"": ""yellow"", ""time_elapsed"": 102540, ""trial_index"": 7, ""rt"": 2646, ""correct"": false, ""group"": ""daxby"", ""response"": ""k"", ""trial_type"": ""robot""}"
A35EI6GDSC0EY8:392CY0QWG1R201SSYXUZROSTUOD4IP,8,1525298644024,"{""internal_node_id"": ""0.0-3.0-2.0"", ""color"": ""yellow"", ""time_elapsed"": 108769, ""trial_index"": 8, ""rt"": 2222, ""correct"": false, ""group"": ""daxby"", ""response"": ""k"", ""trial_type"": ""robot""}"
A35EI6GDSC0EY8:392CY0QWG1R201SSYXUZROSTUOD4IP,9,1525298649751,"{""internal_node_id"": ""0.0-3.0-6.0"", ""color"": ""blue"", ""time_elapsed"": 114495, ""trial_index"": 9, ""rt"": 1712, ""correct"": false, ""group"": ""kizik"", ""response"": ""d"", ""trial_type"": ""robot""}"
A35EI6GDSC0EY8:392CY0QWG1R201SSYXUZROSTUOD4IP,10,1525298655313,"{""internal_node_id"": ""0.0-3.0-4.0"", ""color"": ""blue"", ""time_elapsed"": 120058, ""trial_index"": 10, ""rt"": 1551, ""correct"": true, ""group"": ""daxby"", ""response"": ""d"", ""trial_type"": ""robot""}"
A35EI6GDSC0EY8:392CY0QWG1R201SSYXUZROSTUOD4IP,11,1525298661394,"{""internal_node_id"": ""0.0-3.0-0.0"", ""color"": ""yellow"", ""time_elapsed"": 126139, ""trial_index"": 11, ""rt"": 2074, ""correct"": true, ""group"": ""kizik"", ""response"": ""k"", ""trial_type"": ""robot""}"
A35EI6GDSC0EY8:392CY0QWG1R201SSYXUZROSTUOD4IP,12,1525298669293,"{""internal_node_id"": ""0.0-4.0"", ""time_elapsed"": 134038, ""trial_index"": 12, ""responses"": {""Q0"": ""2987684""}, ""rt"": 6892, ""trial_type"": ""survey-text-force""}"
A35EI6GDSC0EY8:392CY0QWG1R201SSYXUZROSTUOD4IP,13,1525298676228,"{""internal_node_id"": ""0.0-5.0"", ""button_pressed"": 0, ""time_elapsed"": 140973, ""trial_index"": 13, ""rt"": 5930, ""stimulus"": ""\n\t\t\t\t<strong style='color: green'>Correct!</strong><br>\n\t\t\t\tThe number was <b>2987684</b>.<br>\n\t\t\t\tPlease keep the number in memory because we will ask you to recall it again.\n\t\t\t"", ""trial_type"": ""button-response""}"
A35EI6GDSC0EY8:392CY0QWG1R201SSYXUZROSTUOD4IP,14,1525298681921,"{""internal_node_id"": ""0.0-6.0-7.0"", ""color"": ""blue"", ""time_elapsed"": 146666, ""trial_index"": 14, ""rt"": 1680, ""correct"": false, ""group"": ""kizik"", ""response"": ""d"", ""trial_type"": ""robot""}"
A35EI6GDSC0EY8:392CY0QWG1R201SSYXUZROSTUOD4IP,15,1525298686804,"{""internal_node_id"": ""0.0-6.0-3.0"", ""color"": ""blue"", ""time_elapsed"": 151548, ""trial_index"": 15, ""rt"": 870, ""correct"": true, ""group"": ""daxby"", ""response"": ""d"", ""trial_type"": ""robot""}"
A35EI6GDSC0EY8:392CY0QWG1R201SSYXUZROSTUOD4IP,16,1525298692702,"{""internal_node_id"": ""0.0-6.0-2.0"", ""color"": ""blue"", ""time_elapsed"": 157447, ""trial_index"": 16, ""rt"": 1892, ""correct"": false, ""group"": ""daxby"", ""response"": ""k"", ""trial_type"": ""robot""}"
A35EI6GDSC0EY8:392CY0QWG1R201SSYXUZROSTUOD4IP,17,1525298698080,"{""internal_node_id"": ""0.0-6.0-8.0"", ""color"": ""yellow"", ""time_elapsed"": 162825, ""trial_index"": 17, ""rt"": 1367, ""correct"": true, ""group"": ""daxby"", ""response"": ""d"", ""trial_type"": ""robot""}"
A35EI6GDSC0EY8:392CY0QWG1R201SSYXUZROSTUOD4IP,18,1525298702917,"{""internal_node_id"": ""0.0-6.0-6.0"", ""color"": ""yellow"", ""time_elapsed"": 167662, ""trial_index"": 18, ""rt"": 821, ""correct"": false, ""group"": ""kizik"", ""response"": ""d"", ""trial_type"": ""robot""}"
A35EI6GDSC0EY8:392CY0QWG1R201SSYXUZROSTUOD4IP,19,1525298707546,"{""internal_node_id"": ""0.0-6.0-1.0"", ""color"": ""blue"", ""time_elapsed"": 172291, ""trial_index"": 19, ""rt"": 621, ""correct"": true, ""group"": ""daxby"", ""response"": ""d"", ""trial_type"": ""robot""}"
A35EI6GDSC0EY8:392CY0QWG1R201SSYXUZROSTUOD4IP,20,1525298712265,"{""internal_node_id"": ""0.0-6.0-5.0"", ""color"": ""blue"", ""time_elapsed"": 177010, ""trial_index"": 20, ""rt"": 710, ""correct"": true, ""group"": ""daxby"", ""response"": ""d"", ""trial_type"": ""robot""}"
A35EI6GDSC0EY8:392CY0QWG1R201SSYXUZROSTUOD4IP,21,1525298717634,"{""internal_node_id"": ""0.0-6.0-4.0"", ""color"": ""yellow"", ""time_elapsed"": 182378, ""trial_index"": 21, ""rt"": 1354, ""correct"": false, ""group"": ""daxby"", ""response"": ""k"", ""trial_type"": ""robot""}"
A35EI6GDSC0EY8:392CY0QWG1R201SSYXUZROSTUOD4IP,22,1525298722123,"{""internal_node_id"": ""0.0-6.0-0.0"", ""color"": ""blue"", ""time_elapsed"": 186868, ""trial_index"": 22, ""rt"": 483, ""correct"": true, ""group"": ""daxby"", ""response"": ""d"", ""trial_type"": ""robot""}"
A35EI6GDSC0EY8:392CY0QWG1R201SSYXUZROSTUOD4IP,23,1525298733775,"{""internal_node_id"": ""0.0-7.0"", ""time_elapsed"": 198520, ""trial_index"": 23, ""responses"": {""Q0"": ""2987684""}, ""rt"": 10645, ""trial_type"": ""survey-text-force""}"
A35EI6GDSC0EY8:392CY0QWG1R201SSYXUZROSTUOD4IP,24,1525298750553,"{""responses"": 25, ""internal_node_id"": ""0.0-8.0"", ""trial_type"": ""slider"", ""trial_index"": 24, ""time_elapsed"": 215298}"
A35EI6GDSC0EY8:392CY0QWG1R201SSYXUZROSTUOD4IP,25,1525298761419,"{""responses"": 36, ""internal_node_id"": ""0.0-9.0"", ""trial_type"": ""slider"", ""trial_index"": 25, ""time_elapsed"": 226164}"
A35EI6GDSC0EY8:392CY0QWG1R201SSYXUZROSTUOD4IP,26,1525298764295,"{""internal_node_id"": ""0.0-10.0"", ""button_pressed"": 0, ""time_elapsed"": 229040, ""trial_index"": 26, ""rt"": 1871, ""stimulus"": [""<p>Thanks so much for participating in this research.</p>Your final bonus is $0.08""], ""trial_type"": ""button-response""}"
A3S2R1NK6HZ9KP:3FFJ6VRIL1OL1DARFW7XFL2GDC4I0U,0,1525301288029,"{""internal_node_id"": ""0.0-0.0"", ""time_elapsed"": 24022, ""trial_index"": 0, ""view_history"": ""[{\""page_index\"":0,\""viewing_time\"":1200},{\""page_index\"":1,\""viewing_time\"":15556},{\""page_index\"":2,\""viewing_time\"":7264}]"", ""rt"": 24021, ""trial_type"": ""instructions""}"
A3S2R1NK6HZ9KP:3FFJ6VRIL1OL1DARFW7XFL2GDC4I0U,1,1525301295051,"{""internal_node_id"": ""0.0-1.0"", ""button_pressed"": 0, ""time_elapsed"": 31044, ""trial_index"": 1, ""rt"": 6017, ""stimulus"": ""\n\t\t\t\t<h1>Instructions Complete</h1>\n\n\t\t\t\tYou're now ready to begin seeing robots and predicting where they are from.\n\t\t\t\tYou will see 18 robots in total.\n\t\t\t\tRemember, you earn one cent for each correct prediction. Good luck!\n\t\t\t"", ""trial_type"": ""button-response""}"
A3S2R1NK6HZ9KP:3FFJ6VRIL1OL1DARFW7XFL2GDC4I0U,2,1525301306015,"{""internal_node_id"": ""0.0-2.0-0.0"", ""color"": ""yellow"", ""time_elapsed"": 42008, ""trial_index"": 2, ""rt"": 6956, ""correct"": false, ""group"": ""kizik"", ""response"": ""d"", ""trial_type"": ""robot""}"
A3S2R1NK6HZ9KP:3FFJ6VRIL1OL1DARFW7XFL2GDC4I0U,3,1525301311312,"{""internal_node_id"": ""0.0-2.0-7.0"", ""color"": ""yellow"", ""time_elapsed"": 47305, ""trial_index"": 3, ""rt"": 1293, ""correct"": false, ""group"": ""daxby"", ""response"": ""k"", ""trial_type"": ""robot""}"
A3S2R1NK6HZ9KP:3FFJ6VRIL1OL1DARFW7XFL2GDC4I0U,4,1525301315938,"{""internal_node_id"": ""0.0-2.0-1.0"", ""color"": ""blue"", ""time_elapsed"": 51930, ""trial_index"": 4, ""rt"": 620, ""correct"": true, ""group"": ""daxby"", ""response"": ""d"", ""trial_type"": ""robot""}"
A3S2R1NK6HZ9KP:3FFJ6VRIL1OL1DARFW7XFL2GDC4I0U,5,1525301320605,"{""internal_node_id"": ""0.0-2.0-2.0"", ""color"": ""blue"", ""time_elapsed"": 56597, ""trial_index"": 5, ""rt"": 663, ""correct"": false, ""group"": ""kizik"", ""response"": ""d"", ""trial_type"": ""robot""}"
A3S2R1NK6HZ9KP:3FFJ6VRIL1OL1DARFW7XFL2GDC4I0U,6,1525301324692,"{""internal_node_id"": ""0.0-2.0-5.0"", ""color"": ""blue"", ""time_elapsed"": 60685, ""trial_index"": 6, ""rt"": 83, ""correct"": false, ""group"": ""kizik"", ""response"": ""d"", ""trial_type"": ""robot""}"
A3S2R1NK6HZ9KP:3FFJ6VRIL1OL1DARFW7XFL2GDC4I0U,7,1525301329171,"{""internal_node_id"": ""0.0-2.0-3.0"", ""color"": ""yellow"", ""time_elapsed"": 65164, ""trial_index"": 7, ""rt"": 476, ""correct"": true, ""group"": ""daxby"", ""response"": ""d"", ""trial_type"": ""robot""}"
A3S2R1NK6HZ9KP:3FFJ6VRIL1OL1DARFW7XFL2GDC4I0U,8,1525301333557,"{""internal_node_id"": ""0.0-2.0-4.0"", ""color"": ""blue"", ""time_elapsed"": 69550, ""trial_index"": 8, ""rt"": 380, ""correct"": true, ""group"": ""daxby"", ""response"": ""d"", ""trial_type"": ""robot""}"
A3S2R1NK6HZ9KP:3FFJ6VRIL1OL1DARFW7XFL2GDC4I0U,9,1525301337892,"{""internal_node_id"": ""0.0-2.0-6.0"", ""color"": ""blue"", ""time_elapsed"": 73885, ""trial_index"": 9, ""rt"": 328, ""correct"": true, ""group"": ""daxby"", ""response"": ""d"", ""trial_type"": ""robot""}"
A3S2R1NK6HZ9KP:3FFJ6VRIL1OL1DARFW7XFL2GDC4I0U,10,1525301342230,"{""internal_node_id"": ""0.0-2.0-8.0"", ""color"": ""blue"", ""time_elapsed"": 78223, ""trial_index"": 10, ""rt"": 332, ""correct"": false, ""group"": ""kizik"", ""response"": ""d"", ""trial_type"": ""robot""}"
A3S2R1NK6HZ9KP:3FFJ6VRIL1OL1DARFW7XFL2GDC4I0U,11,1525301346499,"{""internal_node_id"": ""0.0-3.0-2.0"", ""color"": ""blue"", ""time_elapsed"": 82492, ""trial_index"": 11, ""rt"": 264, ""correct"": true, ""group"": ""daxby"", ""response"": ""d"", ""trial_type"": ""robot""}"
A3S2R1NK6HZ9KP:3FFJ6VRIL1OL1DARFW7XFL2GDC4I0U,12,1525301350506,"{""internal_node_id"": ""0.0-3.0-1.0"", ""color"": ""yellow"", ""time_elapsed"": 86499, ""trial_index"": 12, ""rt"": 0, ""correct"": true, ""group"": ""daxby"", ""response"": ""d"", ""trial_type"": ""robot""}"
A3S2R1NK6HZ9KP:3FFJ6VRIL1OL1DARFW7XFL2GDC4I0U,13,1525301354525,"{""internal_node_id"": ""0.0-3.0-6.0"", ""color"": ""yellow"", ""time_elapsed"": 90518, ""trial_index"": 13, ""rt"": 16, ""correct"": true, ""group"": ""daxby"", ""response"": ""d"", ""trial_type"": ""robot""}"
A3S2R1NK6HZ9KP:3FFJ6VRIL1OL1DARFW7XFL2GDC4I0U,14,1525301358751,"{""internal_node_id"": ""0.0-3.0-4.0"", ""color"": ""blue"", ""time_elapsed"": 94742, ""trial_index"": 14, ""rt"": 219, ""correct"": true, ""group"": ""daxby"", ""response"": ""d"", ""trial_type"": ""robot""}"
A3S2R1NK6HZ9KP:3FFJ6VRIL1OL1DARFW7XFL2GDC4I0U,15,1525301362886,"{""internal_node_id"": ""0.0-3.0-5.0"", ""color"": ""blue"", ""time_elapsed"": 98879, ""trial_index"": 15, ""rt"": 132, ""correct"": false, ""group"": ""kizik"", ""response"": ""d"", ""trial_type"": ""robot""}"
A3S2R1NK6HZ9KP:3FFJ6VRIL1OL1DARFW7XFL2GDC4I0U,16,1525301366952,"{""internal_node_id"": ""0.0-3.0-7.0"", ""color"": ""blue"", ""time_elapsed"": 102944, ""trial_index"": 16, ""rt"": 62, ""correct"": true, ""group"": ""daxby"", ""response"": ""d"", ""trial_type"": ""robot""}"
A3S2R1NK6HZ9KP:3FFJ6VRIL1OL1DARFW7XFL2GDC4I0U,17,1525301371224,"{""internal_node_id"": ""0.0-3.0-8.0"", ""color"": ""blue"", ""time_elapsed"": 107216, ""trial_index"": 17, ""rt"": 269, ""correct"": true, ""group"": ""daxby"", ""response"": ""d"", ""trial_type"": ""robot""}"
A3S2R1NK6HZ9KP:3FFJ6VRIL1OL1DARFW7XFL2GDC4I0U,18,1525301375467,"{""internal_node_id"": ""0.0-3.0-3.0"", ""color"": ""yellow"", ""time_elapsed"": 111460, ""trial_index"": 18, ""rt"": 238, ""correct"": false, ""group"": ""kizik"", ""response"": ""d"", ""trial_type"": ""robot""}"
A3S2R1NK6HZ9KP:3FFJ6VRIL1OL1DARFW7XFL2GDC4I0U,19,1525301379729,"{""internal_node_id"": ""0.0-3.0-0.0"", ""color"": ""blue"", ""time_elapsed"": 115721, ""trial_index"": 19, ""rt"": 260, ""correct"": true, ""group"": ""daxby"", ""response"": ""d"", ""trial_type"": ""robot""}"
A3S2R1NK6HZ9KP:3FFJ6VRIL1OL1DARFW7XFL2GDC4I0U,20,1525301387758,"{""responses"": 33, ""internal_node_id"": ""0.0-4.0"", ""trial_type"": ""slider"", ""trial_index"": 20, ""time_elapsed"": 123750}"
A3S2R1NK6HZ9KP:3FFJ6VRIL1OL1DARFW7XFL2GDC4I0U,21,1525301393339,"{""responses"": 33, ""internal_node_id"": ""0.0-5.0"", ""trial_type"": ""slider"", ""trial_index"": 21, ""time_elapsed"": 129332}"
A3S2R1NK6HZ9KP:3FFJ6VRIL1OL1DARFW7XFL2GDC4I0U,22,1525301395937,"{""internal_node_id"": ""0.0-6.0"", ""button_pressed"": 0, ""time_elapsed"": 131930, ""trial_index"": 22, ""rt"": 1594, ""stimulus"": [""<p>Thanks so much for participating in this research.</p>Your final bonus is $0.11""], ""trial_type"": ""button-response""}"
A1D6XHHHMLC3VY:3NJM2BJS4W6XCRSB47Q1JJ5T8FTPC3,0,1525302617549,"{""internal_node_id"": ""0.0-0.0"", ""time_elapsed"": 196423, ""trial_index"": 0, ""view_history"": ""[{\""page_index\"":0,\""viewing_time\"":142129},{\""page_index\"":1,\""viewing_time\"":10968},{\""page_index\"":0,\""viewing_time\"":22509},{\""page_index\"":1,\""viewing_time\"":3963},{\""page_index\"":2,\""viewing_time\"":16850}]"", ""rt"": 196421, ""trial_type"": ""instructions""}"
A1D6XHHHMLC3VY:3NJM2BJS4W6XCRSB47Q1JJ5T8FTPC3,1,1525302667562,"{""internal_node_id"": ""0.0-1.0"", ""time_elapsed"": 246435, ""trial_index"": 1, ""responses"": {""Q0"": ""9155215""}, ""rt"": 48825, ""trial_type"": ""survey-text-force""}"
A1D6XHHHMLC3VY:3NJM2BJS4W6XCRSB47Q1JJ5T8FTPC3,2,1525302675420,"{""internal_node_id"": ""0.0-2.0"", ""button_pressed"": 0, ""time_elapsed"": 254293, ""trial_index"": 2, ""rt"": 6847, ""stimulus"": ""\n\t\t\t\t<h1>Instructions Complete</h1>\n\n\t\t\t\tYou're now ready to begin seeing robots and predicting where they are from.\n\t\t\t\tYou will see 18 robots in total.\n\t\t\t\tRemember, you earn one cent for each correct prediction. Good luck!\n\t\t\t"", ""trial_type"": ""button-response""}"
A1D6XHHHMLC3VY:3NJM2BJS4W6XCRSB47Q1JJ5T8FTPC3,3,1525302682956,"{""internal_node_id"": ""0.0-3.0-1.0"", ""color"": ""blue"", ""time_elapsed"": 261829, ""trial_index"": 3, ""rt"": 3525, ""correct"": true, ""group"": ""daxby"", ""response"": ""d"", ""trial_type"": ""robot""}"
A1D6XHHHMLC3VY:3NJM2BJS4W6XCRSB47Q1JJ5T8FTPC3,4,1525302689687,"{""internal_node_id"": ""0.0-3.0-4.0"", ""color"": ""yellow"", ""time_elapsed"": 268561, ""trial_index"": 4, ""rt"": 2709, ""correct"": false, ""group"": ""daxby"", ""response"": ""k"", ""trial_type"": ""robot""}"
A1D6XHHHMLC3VY:3NJM2BJS4W6XCRSB47Q1JJ5T8FTPC3,5,1525302698118,"{""internal_node_id"": ""0.0-3.0-6.0"", ""color"": ""yellow"", ""time_elapsed"": 276992, ""trial_index"": 5, ""rt"": 4423, ""correct"": false, ""group"": ""kizik"", ""response"": ""d"", ""trial_type"": ""robot""}"
A1D6XHHHMLC3VY:3NJM2BJS4W6XCRSB47Q1JJ5T8FTPC3,6,1525302704196,"{""internal_node_id"": ""0.0-3.0-7.0"", ""color"": ""blue"", ""time_elapsed"": 283070, ""trial_index"": 6, ""rt"": 2073, ""correct"": true, ""group"": ""daxby"", ""response"": ""d"", ""trial_type"": ""robot""}"
A1D6XHHHMLC3VY:3NJM2BJS4W6XCRSB47Q1JJ5T8FTPC3,7,1525302712221,"{""internal_node_id"": ""0.0-3.0-8.0"", ""color"": ""yellow"", ""time_elapsed"": 291093, ""trial_index"": 7, ""rt"": 3988, ""correct"": false, ""group"": ""daxby"", ""response"": ""k"", ""trial_type"": ""robot""}"
A1D6XHHHMLC3VY:3NJM2BJS4W6XCRSB47Q1JJ5T8FTPC3,8,1525302750431,"{""internal_node_id"": ""0.0-3.0-2.0"", ""color"": ""blue"", ""time_elapsed"": 329304, ""trial_index"": 8, ""rt"": 34203, ""correct"": false, ""group"": ""daxby"", ""response"": ""k"", ""trial_type"": ""robot""}"
A1D6XHHHMLC3VY:3NJM2BJS4W6XCRSB47Q1JJ5T8FTPC3,9,1525302758785,"{""internal_node_id"": ""0.0-3.0-3.0"", ""color"": ""blue"", ""time_elapsed"": 337657, ""trial_index"": 9, ""rt"": 4340, ""correct"": false, ""group"": ""daxby"", ""response"": ""k"", ""trial_type"": ""robot""}"
A1D6XHHHMLC3VY:3NJM2BJS4W6XCRSB47Q1JJ5T8FTPC3,10,1525302763851,"{""internal_node_id"": ""0.0-3.0-5.0"", ""color"": ""yellow"", ""time_elapsed"": 342725, ""trial_index"": 10, ""rt"": 1060, ""correct"": true, ""group"": ""daxby"", ""response"": ""d"", ""trial_type"": ""robot""}"
A1D6XHHHMLC3VY:3NJM2BJS4W6XCRSB47Q1JJ5T8FTPC3,11,1525302770300,"{""internal_node_id"": ""0.0-3.0-0.0"", ""color"": ""blue"", ""time_elapsed"": 349173, ""trial_index"": 11, ""rt"": 2313, ""correct"": false, ""group"": ""kizik"", ""response"": ""d"", ""trial_type"": ""robot""}"
A1D6XHHHMLC3VY:3NJM2BJS4W6XCRSB47Q1JJ5T8FTPC3,12,1525302779909,"{""internal_node_id"": ""0.0-4.0"", ""time_elapsed"": 358783, ""trial_index"": 12, ""responses"": {""Q0"": ""9155215""}, ""rt"": 8548, ""trial_type"": ""survey-text-force""}"
A1D6XHHHMLC3VY:3NJM2BJS4W6XCRSB47Q1JJ5T8FTPC3,13,1525302783486,"{""internal_node_id"": ""0.0-5.0"", ""button_pressed"": 0, ""time_elapsed"": 362359, ""trial_index"": 13, ""rt"": 2515, ""stimulus"": ""\n\t\t\t\t<strong style='color: green'>Correct!</strong><br>\n\t\t\t\tThe number was <b>9155215</b>.<br>\n\t\t\t\tPlease keep the number in memory because we will ask you to recall it again.\n\t\t\t"", ""trial_type"": ""button-response""}"
A1D6XHHHMLC3VY:3NJM2BJS4W6XCRSB47Q1JJ5T8FTPC3,14,1525302789769,"{""internal_node_id"": ""0.0-6.0-1.0"", ""color"": ""yellow"", ""time_elapsed"": 368643, ""trial_index"": 14, ""rt"": 2281, ""correct"": false, ""group"": ""daxby"", ""response"": ""k"", ""trial_type"": ""robot""}"
A1D6XHHHMLC3VY:3NJM2BJS4W6XCRSB47Q1JJ5T8FTPC3,15,1525302796049,"{""internal_node_id"": ""0.0-6.0-2.0"", ""color"": ""blue"", ""time_elapsed"": 374923, ""trial_index"": 15, ""rt"": 2274, ""correct"": false, ""group"": ""kizik"", ""response"": ""d"", ""trial_type"": ""robot""}"
A1D6XHHHMLC3VY:3NJM2BJS4W6XCRSB47Q1JJ5T8FTPC3,16,1525302802721,"{""internal_node_id"": ""0.0-6.0-4.0"", ""color"": ""yellow"", ""time_elapsed"": 381594, ""trial_index"": 16, ""rt"": 2665, ""correct"": false, ""group"": ""kizik"", ""response"": ""d"", ""trial_type"": ""robot""}"
A1D6XHHHMLC3VY:3NJM2BJS4W6XCRSB47Q1JJ5T8FTPC3,17,1525302807650,"{""internal_node_id"": ""0.0-6.0-6.0"", ""color"": ""blue"", ""time_elapsed"": 386523, ""trial_index"": 17, ""rt"": 921, ""correct"": false, ""group"": ""daxby"", ""response"": ""k"", ""trial_type"": ""robot""}"
A1D6XHHHMLC3VY:3NJM2BJS4W6XCRSB47Q1JJ5T8FTPC3,18,1525302812513,"{""internal_node_id"": ""0.0-6.0-8.0"", ""color"": ""blue"", ""time_elapsed"": 391387, ""trial_index"": 18, ""rt"": 800, ""correct"": false, ""group"": ""kizik"", ""response"": ""d"", ""trial_type"": ""robot""}"
A1D6XHHHMLC3VY:3NJM2BJS4W6XCRSB47Q1JJ5T8FTPC3,19,1525302817511,"{""internal_node_id"": ""0.0-6.0-3.0"", ""color"": ""blue"", ""time_elapsed"": 396385, ""trial_index"": 19, ""rt"": 982, ""correct"": false, ""group"": ""daxby"", ""response"": ""k"", ""trial_type"": ""robot""}"
A1D6XHHHMLC3VY:3NJM2BJS4W6XCRSB47Q1JJ5T8FTPC3,20,1525302822476,"{""internal_node_id"": ""0.0-6.0-7.0"", ""color"": ""blue"", ""time_elapsed"": 401349, ""trial_index"": 20, ""rt"": 789, ""correct"": false, ""group"": ""daxby"", ""response"": ""k"", ""trial_type"": ""robot""}"
A1D6XHHHMLC3VY:3NJM2BJS4W6XCRSB47Q1JJ5T8FTPC3,21,1525302828322,"{""internal_node_id"": ""0.0-6.0-5.0"", ""color"": ""blue"", ""time_elapsed"": 407196, ""trial_index"": 21, ""rt"": 1811, ""correct"": true, ""group"": ""daxby"", ""response"": ""d"", ""trial_type"": ""robot""}"
A1D6XHHHMLC3VY:3NJM2BJS4W6XCRSB47Q1JJ5T8FTPC3,22,1525302833139,"{""internal_node_id"": ""0.0-6.0-0.0"", ""color"": ""blue"", ""time_elapsed"": 412013, ""trial_index"": 22, ""rt"": 768, ""correct"": false, ""group"": ""kizik"", ""response"": ""d"", ""trial_type"": ""robot""}"
A1D6XHHHMLC3VY:3NJM2BJS4W6XCRSB47Q1JJ5T8FTPC3,23,1525302841005,"{""internal_node_id"": ""0.0-7.0"", ""time_elapsed"": 419879, ""trial_index"": 23, ""responses"": {""Q0"": ""9155215""}, ""rt"": 6865, ""trial_type"": ""survey-text-force""}"
A1D6XHHHMLC3VY:3NJM2BJS4W6XCRSB47Q1JJ5T8FTPC3,24,1525302858849,"{""responses"": 28, ""internal_node_id"": ""0.0-8.0"", ""trial_type"": ""slider"", ""trial_index"": 24, ""time_elapsed"": 437723}"
A1D6XHHHMLC3VY:3NJM2BJS4W6XCRSB47Q1JJ5T8FTPC3,25,1525302864406,"{""responses"": 34, ""internal_node_id"": ""0.0-9.0"", ""trial_type"": ""slider"", ""trial_index"": 25, ""time_elapsed"": 443280}"
A1D6XHHHMLC3VY:3NJM2BJS4W6XCRSB47Q1JJ5T8FTPC3,26,1525302866902,"{""internal_node_id"": ""0.0-10.0"", ""button_pressed"": 0, ""time_elapsed"": 445776, ""trial_index"": 26, ""rt"": 1494, ""stimulus"": [""<p>Thanks so much for participating in this research.</p>Your final bonus is $0.04""], ""trial_type"": ""button-response""}"
