color,correct,group,response,rt,time_elapsed,trial_type,pid
yellow,TRUE,daxby,d,3025,15192,robot,14
blue,TRUE,daxby,d,957,20150,robot,14
yellow,TRUE,daxby,d,743,24892,robot,14
blue,TRUE,daxby,d,664,29557,robot,14
blue,TRUE,daxby,d,582,34139,robot,14
blue,FALSE,kizik,d,910,39051,robot,14
blue,FALSE,kizik,d,1432,44482,robot,14
blue,TRUE,kizik,k,615,49098,robot,14
yellow,TRUE,daxby,d,1334,54433,robot,14
yellow,TRUE,daxby,d,814,59248,robot,14
blue,FALSE,daxby,k,840,64088,robot,14
blue,TRUE,daxby,d,615,68703,robot,14
yellow,FALSE,kizik,d,735,73438,robot,14
blue,TRUE,daxby,d,1174,78613,robot,14
blue,TRUE,daxby,d,582,83198,robot,14
yellow,TRUE,kizik,k,669,87868,robot,14
blue,FALSE,kizik,d,877,92748,robot,14
blue,FALSE,daxby,k,864,97613,robot,14
blue,TRUE,daxby,d,2864,36361,robot,23
blue,TRUE,daxby,d,742,41294,robot,23
yellow,TRUE,kizik,k,2270,47569,robot,23
blue,TRUE,daxby,d,541,52115,robot,23
blue,TRUE,daxby,d,480,56599,robot,23
yellow,TRUE,kizik,k,808,61411,robot,23
yellow,FALSE,daxby,k,521,65934,robot,23
blue,TRUE,daxby,d,403,70341,robot,23
blue,TRUE,daxby,d,461,74805,robot,23
blue,FALSE,kizik,d,414,79224,robot,23
blue,FALSE,kizik,d,409,83636,robot,23
yellow,FALSE,daxby,k,671,88312,robot,23
blue,FALSE,daxby,k,519,92834,robot,23
blue,TRUE,daxby,d,534,97373,robot,23
blue,FALSE,kizik,d,326,101792,robot,23
yellow,TRUE,daxby,d,145,105940,robot,23
yellow,TRUE,daxby,d,122,110068,robot,23
blue,FALSE,kizik,d,186,114259,robot,23
blue,TRUE,daxby,d,5036,87836,robot,13
yellow,TRUE,daxby,d,2003,93843,robot,13
blue,FALSE,kizik,d,1462,99307,robot,13
blue,FALSE,kizik,d,389,103699,robot,13
blue,TRUE,daxby,d,363,108067,robot,13
blue,TRUE,daxby,d,421,112490,robot,13
yellow,TRUE,daxby,d,486,116979,robot,13
blue,TRUE,daxby,d,3028,124010,robot,13
blue,TRUE,daxby,d,36,128050,robot,13
yellow,FALSE,kizik,d,1518,147202,robot,13
blue,TRUE,daxby,d,724,151930,robot,13
blue,TRUE,daxby,d,990,156923,robot,13
blue,FALSE,kizik,d,364,161292,robot,13
yellow,FALSE,kizik,d,371,165666,robot,13
blue,FALSE,kizik,d,557,170226,robot,13
blue,TRUE,daxby,d,335,174567,robot,13
yellow,TRUE,daxby,d,447,179020,robot,13
yellow,TRUE,daxby,d,387,183412,robot,13
yellow,TRUE,daxby,d,2890,104841,robot,9
blue,FALSE,daxby,k,1970,110816,robot,9
blue,TRUE,daxby,d,1388,116209,robot,9
yellow,FALSE,kizik,d,1196,121408,robot,9
yellow,TRUE,daxby,d,1281,126691,robot,9
blue,TRUE,daxby,d,2037,132732,robot,9
yellow,TRUE,daxby,d,1250,137990,robot,9
blue,FALSE,kizik,d,1024,143016,robot,9
blue,FALSE,kizik,d,914,147934,robot,9
blue,TRUE,daxby,d,1092,167120,robot,9
blue,TRUE,daxby,d,1395,172519,robot,9
blue,FALSE,kizik,d,1526,178050,robot,9
blue,TRUE,daxby,d,389,182443,robot,9
blue,FALSE,kizik,d,622,187068,robot,9
blue,TRUE,daxby,d,354,191427,robot,9
yellow,TRUE,daxby,d,369,195801,robot,9
yellow,TRUE,kizik,k,3653,203457,robot,9
blue,TRUE,daxby,d,510,207968,robot,9
blue,TRUE,daxby,d,1380,17430,robot,42
yellow,FALSE,daxby,b,470,22904,robot,42
yellow,TRUE,boxby,b,360,28268,robot,42
yellow,TRUE,daxby,d,699,33972,robot,42
yellow,TRUE,daxby,d,608,39586,robot,42
blue,TRUE,boxby,b,416,45007,robot,42
blue,FALSE,boxby,d,4945,54958,robot,42
yellow,FALSE,daxby,b,447,60410,robot,42
blue,FALSE,boxby,d,69783,135196,robot,42
blue,FALSE,daxby,b,998,141197,robot,42
blue,TRUE,daxby,d,13156,159359,robot,42
blue,FALSE,daxby,b,505,164869,robot,42
blue,TRUE,daxby,d,457,170330,robot,42
blue,FALSE,daxby,b,474,175809,robot,42
yellow,FALSE,boxby,d,653,181466,robot,42
blue,TRUE,boxby,b,452,186922,robot,42
blue,FALSE,daxby,b,467,192395,robot,42
blue,TRUE,daxby,d,525,197926,robot,42
blue,TRUE,daxby,d,3661,49361,robot,5
blue,TRUE,daxby,d,889,54255,robot,5
blue,FALSE,kizik,d,1087,59346,robot,5
yellow,TRUE,daxby,d,1569,64920,robot,5
yellow,FALSE,kizik,d,656,69579,robot,5
yellow,TRUE,daxby,d,577,74162,robot,5
yellow,TRUE,daxby,d,308,78473,robot,5
blue,FALSE,kizik,d,446,82925,robot,5
blue,FALSE,kizik,d,971,87900,robot,5
blue,TRUE,daxby,d,821,102202,robot,5
yellow,FALSE,kizik,d,468,106677,robot,5
blue,TRUE,daxby,d,279,110958,robot,5
yellow,TRUE,daxby,d,531,115494,robot,5
blue,FALSE,kizik,d,225,119723,robot,5
blue,TRUE,daxby,d,293,124021,robot,5
blue,TRUE,daxby,d,267,128294,robot,5
blue,TRUE,daxby,d,490,132787,robot,5
blue,TRUE,daxby,d,233,137026,robot,5
yellow,TRUE,daxby,d,4584,51765,robot,3
blue,FALSE,daxby,k,2088,57857,robot,3
blue,TRUE,daxby,d,550,62409,robot,3
yellow,FALSE,kizik,d,741,67154,robot,3
yellow,FALSE,daxby,k,884,72042,robot,3
blue,TRUE,daxby,d,942,76986,robot,3
blue,FALSE,kizik,d,723,81712,robot,3
blue,TRUE,daxby,d,1509,87225,robot,3
blue,TRUE,daxby,d,579,91808,robot,3
blue,TRUE,daxby,d,756,96568,robot,3
blue,FALSE,kizik,d,597,101168,robot,3
blue,FALSE,kizik,d,490,105662,robot,3
blue,FALSE,kizik,d,916,110582,robot,3
blue,FALSE,daxby,k,453,115045,robot,3
yellow,TRUE,daxby,d,635,119684,robot,3
yellow,FALSE,kizik,d,684,124371,robot,3
yellow,FALSE,daxby,k,469,128842,robot,3
blue,TRUE,daxby,d,326,133172,robot,3
blue,TRUE,daxby,d,2727,57170,robot,26
yellow,TRUE,daxby,d,1508,62681,robot,26
blue,TRUE,daxby,d,1021,67704,robot,26
blue,FALSE,kizik,d,1053,72759,robot,26
blue,TRUE,daxby,d,873,77636,robot,26
yellow,FALSE,kizik,d,1471,83110,robot,26
yellow,TRUE,daxby,d,1414,88526,robot,26
blue,FALSE,kizik,d,433,92963,robot,26
blue,TRUE,daxby,d,2078,99043,robot,26
yellow,FALSE,kizik,d,2041,113885,robot,26
blue,TRUE,daxby,d,1372,119260,robot,26
yellow,TRUE,daxby,d,3526,126788,robot,26
blue,TRUE,daxby,d,848,131638,robot,26
blue,TRUE,daxby,d,598,136240,robot,26
yellow,TRUE,daxby,d,645,140887,robot,26
blue,FALSE,kizik,d,825,145714,robot,26
blue,TRUE,daxby,d,2227,151944,robot,26
blue,FALSE,kizik,d,1029,156976,robot,26
blue,TRUE,kizik,k,3346,66233,robot,22
blue,FALSE,daxby,k,558,70795,robot,22
blue,FALSE,kizik,d,1417,76214,robot,22
blue,TRUE,daxby,d,2271,82489,robot,22
blue,TRUE,daxby,d,678,87172,robot,22
blue,TRUE,daxby,d,989,92161,robot,22
yellow,FALSE,daxby,k,1445,97609,robot,22
yellow,TRUE,daxby,d,459,102070,robot,22
blue,FALSE,daxby,k,1434,107507,robot,22
yellow,TRUE,daxby,d,1683,137336,robot,22
blue,FALSE,kizik,d,491,141829,robot,22
yellow,FALSE,kizik,d,540,146370,robot,22
blue,TRUE,daxby,d,537,150910,robot,22
yellow,TRUE,daxby,d,649,155561,robot,22
yellow,FALSE,kizik,d,656,160219,robot,22
blue,FALSE,daxby,k,454,164675,robot,22
blue,TRUE,daxby,d,309,168987,robot,22
blue,FALSE,kizik,d,523,173513,robot,22
yellow,TRUE,daxby,d,3123,48073,robot,31
blue,TRUE,daxby,d,1227,53306,robot,31
blue,TRUE,daxby,d,947,58255,robot,31
blue,TRUE,daxby,d,924,63184,robot,31
blue,FALSE,kizik,d,1143,68330,robot,31
blue,TRUE,daxby,d,891,73225,robot,31
blue,TRUE,daxby,d,859,78088,robot,31
blue,TRUE,daxby,d,1046,83136,robot,31
blue,FALSE,kizik,d,918,88058,robot,31
blue,FALSE,kizik,d,1009,104482,robot,31
blue,FALSE,kizik,d,362,108849,robot,31
yellow,FALSE,kizik,d,1253,114106,robot,31
blue,TRUE,daxby,d,407,118520,robot,31
yellow,TRUE,daxby,d,819,123345,robot,31
blue,TRUE,daxby,d,949,128298,robot,31
yellow,TRUE,daxby,d,428,132729,robot,31
yellow,TRUE,daxby,d,362,137095,robot,31
yellow,FALSE,kizik,d,395,141495,robot,31
blue,FALSE,daxby,k,3977,103005,robot,6
blue,FALSE,kizik,d,155,107163,robot,6
blue,TRUE,daxby,d,121,111286,robot,6
yellow,TRUE,daxby,d,457,115746,robot,6
blue,FALSE,kizik,d,175,119923,robot,6
blue,FALSE,kizik,d,574,124501,robot,6
yellow,FALSE,kizik,d,534,129039,robot,6
yellow,FALSE,kizik,d,623,133664,robot,6
yellow,TRUE,daxby,d,371,138038,robot,6
blue,TRUE,daxby,d,2183,167222,robot,6
blue,TRUE,daxby,d,710,171935,robot,6
blue,FALSE,kizik,d,619,176556,robot,6
blue,FALSE,daxby,k,444,181002,robot,6
yellow,TRUE,daxby,d,408,185412,robot,6
blue,TRUE,daxby,d,934,190350,robot,6
yellow,TRUE,daxby,d,571,194923,robot,6
blue,FALSE,daxby,k,476,199403,robot,6
blue,TRUE,daxby,d,490,203895,robot,6
yellow,TRUE,daxby,d,2711,31032,robot,1
blue,FALSE,daxby,k,1486,36528,robot,1
blue,TRUE,daxby,d,698,41232,robot,1
yellow,FALSE,daxby,k,402,45639,robot,1
blue,TRUE,daxby,d,321,49985,robot,1
blue,TRUE,daxby,d,346,54335,robot,1
yellow,TRUE,daxby,d,542,58882,robot,1
yellow,TRUE,daxby,d,633,63520,robot,1
yellow,FALSE,kizik,d,490,68017,robot,1
blue,FALSE,kizik,d,539,72594,robot,1
blue,FALSE,kizik,d,625,77224,robot,1
blue,FALSE,daxby,k,236,81479,robot,1
blue,TRUE,daxby,d,246,85730,robot,1
blue,FALSE,kizik,d,258,89996,robot,1
yellow,TRUE,kizik,k,1061,95061,robot,1
blue,FALSE,daxby,k,587,99654,robot,1
blue,TRUE,daxby,d,342,103999,robot,1
blue,FALSE,kizik,d,268,108274,robot,1
yellow,FALSE,daxby,k,16492,77334,robot,33
blue,FALSE,daxby,k,898,82240,robot,33
blue,TRUE,daxby,d,1224,87470,robot,33
blue,FALSE,kizik,d,1080,92554,robot,33
yellow,TRUE,daxby,d,1328,97886,robot,33
yellow,FALSE,kizik,d,2010,103902,robot,33
blue,FALSE,kizik,d,12470,120378,robot,33
blue,TRUE,daxby,d,6890,131270,robot,33
yellow,FALSE,daxby,k,17434,152708,robot,33
yellow,TRUE,daxby,d,7426,178400,robot,33
blue,TRUE,kizik,k,574,182982,robot,33
blue,FALSE,kizik,d,516,187504,robot,33
yellow,FALSE,kizik,d,460,191968,robot,33
blue,TRUE,daxby,d,404,196374,robot,33
blue,TRUE,daxby,d,558,200936,robot,33
blue,TRUE,daxby,d,716,205656,robot,33
blue,TRUE,daxby,d,602,210262,robot,33
blue,TRUE,daxby,d,584,214850,robot,33
yellow,FALSE,kizik,d,4018,38565,robot,32
yellow,FALSE,daxby,k,2866,45434,robot,32
blue,TRUE,daxby,d,1886,51322,robot,32
blue,TRUE,daxby,d,1169,56494,robot,32
blue,TRUE,daxby,d,925,61422,robot,32
blue,FALSE,kizik,d,879,66305,robot,32
blue,TRUE,kizik,k,601,70911,robot,32
blue,TRUE,kizik,k,793,75707,robot,32
blue,TRUE,kizik,k,903,80613,robot,32
blue,FALSE,daxby,k,765,85383,robot,32
yellow,FALSE,kizik,d,1200,90585,robot,32
blue,FALSE,daxby,k,288,94878,robot,32
yellow,FALSE,daxby,k,420,99302,robot,32
blue,TRUE,daxby,d,306,103613,robot,32
yellow,TRUE,daxby,d,347,107962,robot,32
blue,TRUE,daxby,d,794,112760,robot,32
blue,TRUE,daxby,d,457,117220,robot,32
yellow,TRUE,daxby,d,528,121751,robot,32
blue,TRUE,daxby,d,2526,226962,robot,28
blue,FALSE,kizik,d,599,231560,robot,28
blue,TRUE,daxby,d,416,235977,robot,28
blue,FALSE,kizik,d,279,240255,robot,28
blue,TRUE,daxby,d,376,244631,robot,28
yellow,TRUE,daxby,d,344,248977,robot,28
blue,TRUE,daxby,d,375,253351,robot,28
blue,FALSE,kizik,d,279,257631,robot,28
yellow,TRUE,daxby,d,1231,262863,robot,28
blue,FALSE,kizik,d,1202,297351,robot,28
yellow,TRUE,daxby,d,945,302296,robot,28
yellow,FALSE,kizik,d,863,307160,robot,28
blue,TRUE,daxby,d,439,311599,robot,28
yellow,FALSE,kizik,d,1576,317175,robot,28
blue,TRUE,daxby,d,406,321584,robot,28
blue,TRUE,daxby,d,447,326031,robot,28
blue,TRUE,daxby,d,448,330479,robot,28
yellow,TRUE,daxby,d,344,334822,robot,28
blue,TRUE,daxby,d,2726,45225,robot,24
blue,TRUE,daxby,d,1690,50920,robot,24
blue,TRUE,daxby,d,556,55481,robot,24
blue,TRUE,daxby,d,1142,60630,robot,24
blue,TRUE,daxby,d,737,65371,robot,24
blue,FALSE,kizik,d,970,70348,robot,24
blue,FALSE,kizik,d,471,74826,robot,24
yellow,TRUE,daxby,d,1647,80479,robot,24
blue,FALSE,daxby,k,1482,85968,robot,24
blue,TRUE,daxby,d,1892,98374,robot,24
blue,TRUE,daxby,d,572,102952,robot,24
blue,TRUE,kizik,k,663,107622,robot,24
yellow,TRUE,daxby,d,1182,112810,robot,24
blue,FALSE,kizik,d,467,117282,robot,24
yellow,TRUE,daxby,d,991,122278,robot,24
yellow,TRUE,daxby,d,684,126968,robot,24
yellow,FALSE,kizik,d,612,131584,robot,24
yellow,FALSE,kizik,d,719,136311,robot,24
blue,TRUE,daxby,d,4774,62236,robot,21
yellow,TRUE,kizik,k,3351,69599,robot,21
yellow,FALSE,daxby,k,2256,75864,robot,21
yellow,FALSE,kizik,d,2787,82660,robot,21
yellow,FALSE,daxby,k,6988,93656,robot,21
yellow,TRUE,daxby,d,3222,100884,robot,21
blue,TRUE,daxby,d,1379,106284,robot,21
blue,TRUE,daxby,d,1479,111769,robot,21
yellow,FALSE,daxby,k,1967,117745,robot,21
blue,TRUE,daxby,d,747,122499,robot,21
blue,FALSE,kizik,d,1186,127691,robot,21
blue,FALSE,kizik,d,535,132233,robot,21
blue,TRUE,daxby,d,1455,137694,robot,21
blue,TRUE,kizik,k,1744,143444,robot,21
blue,TRUE,daxby,d,2361,149813,robot,21
blue,FALSE,kizik,d,2016,155836,robot,21
blue,TRUE,daxby,d,2491,162334,robot,21
blue,TRUE,daxby,d,2014,168354,robot,21
blue,FALSE,kizik,d,3738,24202,robot,4
blue,TRUE,kizik,k,2053,30260,robot,4
yellow,TRUE,daxby,d,768,35032,robot,4
blue,FALSE,daxby,k,429,39464,robot,4
blue,TRUE,daxby,d,342,43810,robot,4
blue,TRUE,daxby,d,253,48066,robot,4
blue,TRUE,daxby,d,283,52354,robot,4
blue,FALSE,kizik,d,218,56574,robot,4
blue,TRUE,daxby,d,142,60721,robot,4
blue,TRUE,daxby,d,237,64963,robot,4
blue,TRUE,daxby,d,251,69216,robot,4
blue,TRUE,daxby,d,220,73439,robot,4
yellow,TRUE,daxby,d,136,77580,robot,4
blue,FALSE,kizik,d,264,81847,robot,4
yellow,FALSE,kizik,d,298,86149,robot,4
yellow,FALSE,kizik,d,230,90382,robot,4
yellow,TRUE,daxby,d,264,94652,robot,4
yellow,TRUE,daxby,d,90,98746,robot,4
blue,TRUE,daxby,d,4007,52776,robot,37
yellow,TRUE,daxby,d,1271,58049,robot,37
blue,FALSE,kizik,d,757,62808,robot,37
blue,FALSE,daxby,k,1352,68163,robot,37
blue,FALSE,kizik,d,1219,73384,robot,37
blue,TRUE,daxby,d,857,78246,robot,37
yellow,TRUE,daxby,d,993,83240,robot,37
blue,FALSE,kizik,d,1243,88484,robot,37
blue,FALSE,daxby,k,416,92903,robot,37
blue,FALSE,daxby,k,1124,108534,robot,37
blue,FALSE,daxby,k,491,113026,robot,37
blue,FALSE,daxby,k,467,117494,robot,37
yellow,TRUE,daxby,d,736,122230,robot,37
yellow,TRUE,kizik,k,649,126880,robot,37
blue,FALSE,kizik,d,407,131288,robot,37
yellow,TRUE,daxby,d,462,135752,robot,37
blue,TRUE,daxby,d,553,140306,robot,37
yellow,FALSE,kizik,d,388,144694,robot,37
yellow,TRUE,daxby,d,5100,79070,robot,15
blue,TRUE,daxby,d,1069,84142,robot,15
blue,FALSE,kizik,d,591,88734,robot,15
yellow,FALSE,kizik,d,817,93555,robot,15
blue,FALSE,daxby,k,1370,98926,robot,15
blue,FALSE,kizik,d,479,103406,robot,15
blue,TRUE,daxby,d,2013,109421,robot,15
yellow,TRUE,daxby,d,560,113981,robot,15
blue,FALSE,daxby,k,343,118325,robot,15
blue,FALSE,kizik,d,2555,132495,robot,15
blue,TRUE,daxby,d,917,137415,robot,15
yellow,FALSE,kizik,d,277,141696,robot,15
blue,FALSE,daxby,k,924,146622,robot,15
blue,TRUE,daxby,d,12,150637,robot,15
yellow,TRUE,daxby,d,790,155430,robot,15
yellow,TRUE,daxby,d,245,159677,robot,15
blue,FALSE,daxby,k,400,164106,robot,15
blue,TRUE,kizik,k,467,168573,robot,15
blue,TRUE,daxby,d,5896,41481,robot,7
blue,FALSE,kizik,d,2192,47677,robot,7
blue,FALSE,kizik,d,1050,52730,robot,7
blue,TRUE,daxby,d,1738,58472,robot,7
blue,TRUE,daxby,d,1397,63872,robot,7
yellow,TRUE,kizik,k,1879,69755,robot,7
blue,FALSE,kizik,d,1217,74975,robot,7
yellow,FALSE,daxby,k,1426,80405,robot,7
blue,TRUE,daxby,d,1150,85558,robot,7
yellow,FALSE,daxby,k,1832,91395,robot,7
blue,FALSE,daxby,k,1733,97131,robot,7
blue,TRUE,daxby,d,1319,102452,robot,7
blue,TRUE,daxby,d,1484,107940,robot,7
blue,TRUE,daxby,d,413,112356,robot,7
yellow,FALSE,daxby,k,353,116712,robot,7
yellow,FALSE,kizik,d,403,121120,robot,7
blue,FALSE,kizik,d,3234,128357,robot,7
yellow,TRUE,daxby,d,2291,134652,robot,7
blue,TRUE,daxby,d,1693,31968,robot,11
blue,TRUE,daxby,d,1045,37019,robot,11
blue,TRUE,daxby,d,1122,42144,robot,11
blue,FALSE,kizik,d,1106,47254,robot,11
blue,TRUE,daxby,d,1355,52614,robot,11
yellow,TRUE,kizik,k,1038,57656,robot,11
blue,FALSE,kizik,d,494,62154,robot,11
yellow,FALSE,daxby,k,452,66610,robot,11
yellow,FALSE,daxby,k,625,71240,robot,11
blue,TRUE,daxby,d,299,75548,robot,11
blue,FALSE,kizik,d,411,79961,robot,11
blue,TRUE,daxby,d,377,84343,robot,11
yellow,TRUE,daxby,d,586,88932,robot,11
blue,TRUE,daxby,d,290,93228,robot,11
blue,FALSE,kizik,d,497,97730,robot,11
yellow,FALSE,kizik,d,442,102174,robot,11
yellow,TRUE,daxby,d,243,106419,robot,11
blue,TRUE,daxby,d,462,110883,robot,11
blue,TRUE,daxby,d,3555,52831,robot,17
yellow,TRUE,kizik,k,926,57762,robot,17
blue,FALSE,kizik,d,708,62473,robot,17
blue,FALSE,daxby,k,1165,67641,robot,17
blue,TRUE,daxby,d,1188,72831,robot,17
yellow,FALSE,daxby,k,1013,77848,robot,17
blue,FALSE,kizik,d,2101,83952,robot,17
blue,TRUE,kizik,k,2029,89984,robot,17
blue,FALSE,daxby,k,1308,95294,robot,17
blue,TRUE,daxby,d,1320,116993,robot,17
blue,FALSE,daxby,k,1685,122680,robot,17
blue,FALSE,kizik,d,1085,127768,robot,17
blue,TRUE,daxby,d,860,132631,robot,17
yellow,FALSE,daxby,k,902,137536,robot,17
yellow,FALSE,daxby,k,1407,142946,robot,17
yellow,TRUE,kizik,k,1123,148071,robot,17
yellow,FALSE,daxby,k,845,152919,robot,17
blue,TRUE,daxby,d,766,157687,robot,17
blue,TRUE,daxby,d,15445,57293,robot,29
yellow,TRUE,kizik,k,2673,63976,robot,29
blue,FALSE,kizik,d,750,68738,robot,29
blue,TRUE,daxby,d,599,73344,robot,29
blue,TRUE,daxby,d,322,77675,robot,29
blue,TRUE,daxby,d,416,82099,robot,29
blue,FALSE,kizik,d,367,86471,robot,29
yellow,TRUE,daxby,d,386,90867,robot,29
blue,TRUE,daxby,d,328,95199,robot,29
blue,FALSE,kizik,d,482,99687,robot,29
blue,TRUE,daxby,d,842,104537,robot,29
yellow,TRUE,daxby,d,586,109130,robot,29
blue,TRUE,daxby,d,310,113448,robot,29
blue,FALSE,kizik,d,325,117787,robot,29
blue,TRUE,daxby,d,442,122242,robot,29
yellow,TRUE,daxby,d,358,126609,robot,29
yellow,FALSE,kizik,d,411,131034,robot,29
yellow,TRUE,daxby,d,672,135715,robot,29
blue,FALSE,kizik,d,3294,51356,robot,35
yellow,FALSE,kizik,d,400,55762,robot,35
blue,TRUE,daxby,d,240,60004,robot,35
yellow,TRUE,daxby,d,240,64248,robot,35
yellow,TRUE,daxby,d,292,68544,robot,35
blue,TRUE,kizik,k,270,72820,robot,35
blue,TRUE,daxby,d,236,77058,robot,35
yellow,TRUE,daxby,d,228,81296,robot,35
yellow,FALSE,daxby,k,300,85600,robot,35
blue,FALSE,daxby,k,238,89838,robot,35
blue,TRUE,daxby,d,212,94052,robot,35
blue,TRUE,daxby,d,260,98318,robot,35
yellow,TRUE,kizik,k,150,102472,robot,35
blue,TRUE,daxby,d,380,106860,robot,35
blue,FALSE,kizik,d,8288,119152,robot,35
blue,TRUE,daxby,d,232,123388,robot,35
blue,FALSE,kizik,d,302,127694,robot,35
blue,TRUE,daxby,d,1012,132706,robot,35
blue,TRUE,daxby,d,3996,56950,robot,10
yellow,FALSE,daxby,k,790,61746,robot,10
yellow,TRUE,daxby,d,2532,68282,robot,10
yellow,FALSE,kizik,d,713,73002,robot,10
blue,FALSE,kizik,d,658,77665,robot,10
blue,FALSE,kizik,d,685,82355,robot,10
blue,FALSE,daxby,k,595,86953,robot,10
blue,FALSE,kizik,d,571,91529,robot,10
blue,FALSE,kizik,d,331,95865,robot,10
blue,TRUE,daxby,d,1247,114008,robot,10
blue,TRUE,daxby,d,348,118362,robot,10
blue,TRUE,daxby,d,634,123005,robot,10
yellow,FALSE,daxby,k,640,127649,robot,10
blue,FALSE,daxby,k,101,131754,robot,10
blue,TRUE,daxby,d,186,135946,robot,10
blue,TRUE,daxby,d,346,140298,robot,10
yellow,TRUE,daxby,d,515,144818,robot,10
yellow,FALSE,kizik,d,282,149105,robot,10
blue,FALSE,daxby,k,6130,90613,robot,34
blue,TRUE,kizik,k,2955,97576,robot,34
yellow,TRUE,daxby,d,3050,104644,robot,34
blue,FALSE,daxby,k,5168,113842,robot,34
blue,TRUE,daxby,d,2595,120446,robot,34
yellow,TRUE,daxby,d,1869,126354,robot,34
yellow,FALSE,daxby,k,1114,131483,robot,34
blue,FALSE,kizik,d,1251,136740,robot,34
blue,FALSE,daxby,k,1168,141910,robot,34
blue,FALSE,kizik,d,2840,186017,robot,34
blue,TRUE,daxby,d,1113,191151,robot,34
blue,TRUE,daxby,d,1559,196759,robot,34
blue,FALSE,kizik,d,1675,202464,robot,34
yellow,FALSE,kizik,d,1243,207717,robot,34
yellow,TRUE,daxby,d,1402,213345,robot,34
blue,TRUE,daxby,d,1501,218853,robot,34
blue,FALSE,daxby,k,1151,224059,robot,34
yellow,FALSE,kizik,d,2007,230157,robot,34
blue,FALSE,daxby,k,1675,19190,robot,20
yellow,FALSE,daxby,k,5612,49652,robot,30
blue,FALSE,kizik,d,1187,54845,robot,30
blue,TRUE,kizik,k,1529,60380,robot,30
yellow,TRUE,daxby,d,813,65200,robot,30
blue,FALSE,daxby,k,692,69896,robot,30
blue,FALSE,daxby,k,1104,75004,robot,30
yellow,FALSE,kizik,d,329,79340,robot,30
yellow,TRUE,daxby,d,385,83729,robot,30
blue,TRUE,daxby,d,634,88368,robot,30
blue,TRUE,daxby,d,474,92864,robot,30
blue,FALSE,kizik,d,522,97393,robot,30
blue,TRUE,daxby,d,270,101668,robot,30
blue,TRUE,daxby,d,351,106024,robot,30
blue,FALSE,kizik,d,735,110767,robot,30
yellow,TRUE,daxby,d,750,115522,robot,30
blue,TRUE,daxby,d,623,120148,robot,30
blue,TRUE,daxby,d,310,124461,robot,30
yellow,TRUE,kizik,k,264,128728,robot,30
yellow,TRUE,daxby,d,3931,49356,robot,16
yellow,TRUE,daxby,d,560,53925,robot,16
blue,TRUE,daxby,d,1176,59107,robot,16
blue,FALSE,kizik,d,674,63787,robot,16
yellow,TRUE,daxby,d,512,68305,robot,16
blue,FALSE,kizik,d,2952,75263,robot,16
blue,TRUE,daxby,d,1344,80611,robot,16
yellow,FALSE,kizik,d,746,85362,robot,16
blue,TRUE,daxby,d,460,89825,robot,16
blue,TRUE,daxby,d,2320,105766,robot,16
blue,FALSE,kizik,d,742,110514,robot,16
yellow,TRUE,daxby,d,462,114980,robot,16
blue,TRUE,daxby,d,667,119652,robot,16
blue,TRUE,daxby,d,546,124202,robot,16
yellow,FALSE,kizik,d,5565,133772,robot,16
blue,TRUE,daxby,d,1617,139394,robot,16
blue,TRUE,daxby,d,749,144147,robot,16
blue,FALSE,kizik,d,667,148818,robot,16
yellow,TRUE,daxby,d,2149,30418,robot,19
blue,TRUE,daxby,d,1194,35619,robot,19
blue,FALSE,kizik,d,273,39897,robot,19
yellow,TRUE,daxby,d,250,44152,robot,19
blue,TRUE,daxby,d,372,48528,robot,19
blue,TRUE,daxby,d,396,52927,robot,19
yellow,TRUE,daxby,d,428,57360,robot,19
blue,TRUE,daxby,d,266,61632,robot,19
yellow,FALSE,kizik,d,402,66039,robot,19
blue,TRUE,daxby,d,346,70390,robot,19
yellow,FALSE,daxby,k,1293,75688,robot,19
blue,FALSE,kizik,d,354,80045,robot,19
blue,FALSE,kizik,d,238,84288,robot,19
blue,TRUE,daxby,d,257,88549,robot,19
blue,FALSE,kizik,d,288,92844,robot,19
blue,TRUE,daxby,d,410,97258,robot,19
blue,TRUE,daxby,d,341,101604,robot,19
yellow,FALSE,kizik,d,386,105995,robot,19
blue,TRUE,daxby,d,2851,53431,robot,25
blue,TRUE,daxby,d,1607,59044,robot,25
blue,TRUE,daxby,d,1720,64771,robot,25
blue,TRUE,daxby,d,903,69680,robot,25
yellow,FALSE,daxby,k,715,74401,robot,25
blue,TRUE,daxby,d,702,79110,robot,25
yellow,TRUE,daxby,d,919,84035,robot,25
blue,FALSE,kizik,d,743,88781,robot,25
blue,FALSE,daxby,k,1057,93843,robot,25
blue,TRUE,daxby,d,658,98507,robot,25
blue,FALSE,kizik,d,639,103151,robot,25
yellow,FALSE,daxby,k,1576,108734,robot,25
yellow,FALSE,kizik,d,806,113546,robot,25
blue,FALSE,kizik,d,1198,118749,robot,25
yellow,FALSE,kizik,d,1282,124036,robot,25
blue,TRUE,daxby,d,1011,129055,robot,25
blue,FALSE,kizik,d,771,133832,robot,25
yellow,FALSE,daxby,k,817,138653,robot,25
blue,TRUE,daxby,d,5447,40370,robot,2
yellow,TRUE,daxby,d,2310,46682,robot,2
blue,FALSE,daxby,k,1501,52187,robot,2
blue,TRUE,kizik,k,938,57128,robot,2
blue,TRUE,daxby,d,304,61434,robot,2
blue,FALSE,kizik,d,782,66218,robot,2
yellow,TRUE,kizik,k,1726,71947,robot,2
blue,FALSE,kizik,d,789,76738,robot,2
blue,FALSE,daxby,k,1333,82074,robot,2
blue,FALSE,daxby,k,1492,96146,robot,2
blue,FALSE,kizik,d,1318,101466,robot,2
yellow,TRUE,daxby,d,638,106107,robot,2
blue,TRUE,daxby,d,349,110458,robot,2
blue,FALSE,daxby,k,278,114739,robot,2
yellow,FALSE,daxby,k,301,119043,robot,2
blue,FALSE,daxby,k,292,123338,robot,2
yellow,TRUE,kizik,k,822,128161,robot,2
yellow,FALSE,daxby,k,7207,139371,robot,2
blue,TRUE,kizik,k,7315,63036,robot,0
yellow,FALSE,daxby,k,3015,70080,robot,0
yellow,FALSE,kizik,d,968,75063,robot,0
blue,TRUE,kizik,k,2478,81558,robot,0
blue,FALSE,daxby,k,1241,86850,robot,0
blue,FALSE,daxby,k,689,91557,robot,0
yellow,TRUE,daxby,d,769,96345,robot,0
yellow,TRUE,daxby,d,1325,101679,robot,0
blue,TRUE,daxby,d,1107,106789,robot,0
blue,TRUE,daxby,d,3146,126826,robot,0
blue,TRUE,daxby,d,4847,135683,robot,0
yellow,TRUE,daxby,d,581,140267,robot,0
blue,FALSE,kizik,d,399,144676,robot,0
blue,FALSE,daxby,k,335,149021,robot,0
yellow,FALSE,kizik,d,446,153480,robot,0
blue,FALSE,daxby,k,1365,158858,robot,0
blue,FALSE,kizik,d,437,163312,robot,0
blue,FALSE,daxby,k,638,167962,robot,0
blue,TRUE,daxby,d,4141,38706,robot,27
blue,TRUE,daxby,d,1340,44047,robot,27
blue,TRUE,daxby,d,1579,49631,robot,27
blue,FALSE,kizik,d,747,54393,robot,27
blue,TRUE,daxby,d,760,59163,robot,27
blue,FALSE,kizik,d,1185,64431,robot,27
yellow,FALSE,kizik,d,1443,69877,robot,27
blue,FALSE,kizik,d,1462,75344,robot,27
yellow,FALSE,daxby,k,1470,80840,robot,27
blue,FALSE,kizik,d,473,85317,robot,27
yellow,TRUE,daxby,d,312,89647,robot,27
yellow,TRUE,daxby,d,477,94140,robot,27
blue,TRUE,daxby,d,340,98487,robot,27
blue,TRUE,daxby,d,363,102859,robot,27
yellow,TRUE,daxby,d,357,107246,robot,27
yellow,FALSE,kizik,d,274,111526,robot,27
blue,TRUE,daxby,d,476,116007,robot,27
blue,TRUE,daxby,d,328,120341,robot,27
yellow,TRUE,kizik,k,3795,186134,robot,12
blue,FALSE,kizik,d,1499,191639,robot,12
yellow,FALSE,daxby,k,949,196593,robot,12
blue,FALSE,daxby,k,1880,202476,robot,12
blue,TRUE,daxby,d,1442,207925,robot,12
blue,FALSE,kizik,d,1016,212947,robot,12
blue,FALSE,daxby,k,581,217531,robot,12
blue,TRUE,daxby,d,657,222192,robot,12
yellow,TRUE,kizik,k,679,226876,robot,12
blue,FALSE,daxby,k,3389,252293,robot,12
blue,FALSE,daxby,k,519,256817,robot,12
yellow,TRUE,daxby,d,473,261296,robot,12
blue,TRUE,daxby,d,484,265784,robot,12
blue,TRUE,daxby,d,643,270431,robot,12
yellow,TRUE,daxby,d,414,274849,robot,12
yellow,TRUE,daxby,d,440,279295,robot,12
blue,FALSE,kizik,d,323,283624,robot,12
blue,FALSE,kizik,d,397,288028,robot,12
yellow,TRUE,daxby,d,2730,42167,robot,8
blue,FALSE,daxby,k,1327,47497,robot,8
blue,FALSE,daxby,k,848,52348,robot,8
yellow,FALSE,daxby,k,529,56882,robot,8
blue,TRUE,daxby,d,269,61156,robot,8
blue,TRUE,daxby,d,523,65680,robot,8
yellow,TRUE,daxby,d,464,70151,robot,8
blue,FALSE,kizik,d,665,74819,robot,8
blue,FALSE,kizik,d,254,79076,robot,8
blue,TRUE,daxby,d,1407,97426,robot,8
blue,TRUE,daxby,d,285,101714,robot,8
yellow,TRUE,kizik,k,545,106264,robot,8
yellow,TRUE,kizik,k,425,110692,robot,8
blue,FALSE,kizik,d,18,114713,robot,8
blue,TRUE,kizik,k,211,118928,robot,8
yellow,FALSE,daxby,k,353,123284,robot,8
blue,TRUE,daxby,d,212,127502,robot,8
blue,TRUE,daxby,d,364,131868,robot,8
blue,FALSE,kizik,d,2998,58971,robot,36
blue,TRUE,daxby,d,2340,65317,robot,36
yellow,TRUE,daxby,d,873,70194,robot,36
blue,TRUE,daxby,d,311,74511,robot,36
yellow,FALSE,daxby,k,315,78829,robot,36
yellow,FALSE,daxby,k,243,83078,robot,36
yellow,FALSE,daxby,k,237,87320,robot,36
yellow,FALSE,kizik,d,173,91496,robot,36
blue,TRUE,daxby,d,320,95820,robot,36
blue,TRUE,daxby,d,270,100095,robot,36
blue,FALSE,kizik,d,264,104365,robot,36
blue,TRUE,daxby,d,5464,113833,robot,36
blue,TRUE,daxby,d,338,118176,robot,36
blue,TRUE,daxby,d,236,122415,robot,36
blue,FALSE,kizik,d,466,126887,robot,36
yellow,FALSE,kizik,d,207,131098,robot,36
blue,TRUE,daxby,d,250,135353,robot,36
blue,FALSE,kizik,d,228,139585,robot,36
blue,TRUE,daxby,d,3054,28398,robot,18
yellow,TRUE,daxby,d,1170,33580,robot,18
yellow,FALSE,kizik,d,1226,38812,robot,18
yellow,TRUE,kizik,k,866,43686,robot,18
blue,TRUE,daxby,d,632,48324,robot,18
blue,TRUE,daxby,d,394,52726,robot,18
blue,FALSE,kizik,d,392,57126,robot,18
yellow,FALSE,daxby,k,830,61966,robot,18
blue,TRUE,daxby,d,410,66382,robot,18
yellow,FALSE,daxby,k,1874,78630,robot,18
yellow,FALSE,daxby,k,408,83054,robot,18
blue,FALSE,daxby,k,416,87480,robot,18
blue,TRUE,daxby,d,282,91772,robot,18
blue,TRUE,daxby,d,356,96140,robot,18
blue,FALSE,kizik,d,912,101060,robot,18
blue,FALSE,kizik,d,30,105100,robot,18
blue,FALSE,kizik,d,262,109372,robot,18
blue,TRUE,daxby,d,132,113520,robot,18