debugCiY6x:debugIShtO,0,1525057475440,"{""internal_node_id"": ""0.0-0.0"", ""trial_index"": 0, ""time_elapsed"": 2596, ""view_history"": ""[{\""page_index\"":0,\""viewing_time\"":1434},{\""page_index\"":1,\""viewing_time\"":1160}]"", ""rt"": 2595, ""trial_type"": ""instructions""}"
debug8Vr9K:debugwObWV,0,1525057587699,"{""internal_node_id"": ""0.0-0.0"", ""trial_index"": 0, ""time_elapsed"": 2216, ""view_history"": ""[{\""page_index\"":0,\""viewing_time\"":1440},{\""page_index\"":1,\""viewing_time\"":774}]"", ""rt"": 2214, ""trial_type"": ""instructions""}"
debugg9oTu:debugUmRsI,0,1525060779264,"{""internal_node_id"": ""0.0-0.0"", ""trial_index"": 0, ""time_elapsed"": 3634, ""view_history"": ""[{\""page_index\"":0,\""viewing_time\"":1274},{\""page_index\"":1,\""viewing_time\"":2360}]"", ""rt"": 3634, ""trial_type"": ""instructions""}"
debugg9oTu:debugUmRsI,1,1525060784464,"{""key_press"": 89, ""trial_index"": 1, ""internal_node_id"": ""0.0-1.0"", ""time_elapsed"": 8834, ""stimulus"": ""static/images/robot_land/population.png"", ""rt"": 4195, ""trial_type"": ""single-stim""}"
A2CJY4787IR70K:3F1567XTNW5GE5MNS0VZHYUV8UEQ9P,0,1525364659794,"{""internal_node_id"": ""0.0-0.0"", ""trial_index"": 0, ""time_elapsed"": 6380, ""view_history"": ""[{\""page_index\"":0,\""viewing_time\"":1996},{\""page_index\"":1,\""viewing_time\"":2167},{\""page_index\"":2,\""viewing_time\"":2215}]"", ""rt"": 6378, ""trial_type"": ""instructions""}"
A2CJY4787IR70K:3F1567XTNW5GE5MNS0VZHYUV8UEQ9P,1,1525364661577,"{""time_elapsed"": 8163, ""trial_index"": 1, ""internal_node_id"": ""0.0-1.0"", ""stimulus"": ""\n\t\t\t\t<h1>Instructions Complete</h1>\n\n\t\t\t\tYou're now ready to begin seeing robots and predicting where they are from.\n\t\t\t\tYou will see 18 robots in total.\n\t\t\t\tRemember, you earn one cent for each correct prediction. Good luck!\n\t\t\t"", ""button_pressed"": 0, ""rt"": 782, ""trial_type"": ""button-response""}"
A2CJY4787IR70K:3F1567XTNW5GE5MNS0VZHYUV8UEQ9P,2,1525364668606,"{""time_elapsed"": 15192, ""trial_index"": 2, ""internal_node_id"": ""0.0-2.0-1.0"", ""group"": ""daxby"", ""correct"": true, ""response"": ""d"", ""rt"": 3025, ""color"": ""yellow"", ""trial_type"": ""robot""}"
A2CJY4787IR70K:3F1567XTNW5GE5MNS0VZHYUV8UEQ9P,3,1525364673564,"{""time_elapsed"": 20150, ""trial_index"": 3, ""internal_node_id"": ""0.0-2.0-2.0"", ""group"": ""daxby"", ""correct"": true, ""response"": ""d"", ""rt"": 957, ""color"": ""blue"", ""trial_type"": ""robot""}"
A2CJY4787IR70K:3F1567XTNW5GE5MNS0VZHYUV8UEQ9P,4,1525364678306,"{""time_elapsed"": 24892, ""trial_index"": 4, ""internal_node_id"": ""0.0-2.0-5.0"", ""group"": ""daxby"", ""correct"": true, ""response"": ""d"", ""rt"": 743, ""color"": ""yellow"", ""trial_type"": ""robot""}"
A2CJY4787IR70K:3F1567XTNW5GE5MNS0VZHYUV8UEQ9P,5,1525364682971,"{""time_elapsed"": 29557, ""trial_index"": 5, ""internal_node_id"": ""0.0-2.0-0.0"", ""group"": ""daxby"", ""correct"": true, ""response"": ""d"", ""rt"": 664, ""color"": ""blue"", ""trial_type"": ""robot""}"
A2CJY4787IR70K:3F1567XTNW5GE5MNS0VZHYUV8UEQ9P,6,1525364687553,"{""time_elapsed"": 34139, ""trial_index"": 6, ""internal_node_id"": ""0.0-2.0-6.0"", ""group"": ""daxby"", ""correct"": true, ""response"": ""d"", ""rt"": 582, ""color"": ""blue"", ""trial_type"": ""robot""}"
A2CJY4787IR70K:3F1567XTNW5GE5MNS0VZHYUV8UEQ9P,7,1525364692465,"{""time_elapsed"": 39051, ""trial_index"": 7, ""internal_node_id"": ""0.0-2.0-8.0"", ""group"": ""kizik"", ""correct"": false, ""response"": ""d"", ""rt"": 910, ""color"": ""blue"", ""trial_type"": ""robot""}"
A2CJY4787IR70K:3F1567XTNW5GE5MNS0VZHYUV8UEQ9P,8,1525364697896,"{""time_elapsed"": 44482, ""trial_index"": 8, ""internal_node_id"": ""0.0-2.0-7.0"", ""group"": ""kizik"", ""correct"": false, ""response"": ""d"", ""rt"": 1432, ""color"": ""blue"", ""trial_type"": ""robot""}"
A2CJY4787IR70K:3F1567XTNW5GE5MNS0VZHYUV8UEQ9P,9,1525364702512,"{""time_elapsed"": 49098, ""trial_index"": 9, ""internal_node_id"": ""0.0-2.0-4.0"", ""group"": ""kizik"", ""correct"": true, ""response"": ""k"", ""rt"": 615, ""color"": ""blue"", ""trial_type"": ""robot""}"
A2CJY4787IR70K:3F1567XTNW5GE5MNS0VZHYUV8UEQ9P,10,1525364707847,"{""time_elapsed"": 54433, ""trial_index"": 10, ""internal_node_id"": ""0.0-2.0-3.0"", ""group"": ""daxby"", ""correct"": true, ""response"": ""d"", ""rt"": 1334, ""color"": ""yellow"", ""trial_type"": ""robot""}"
A2CJY4787IR70K:3F1567XTNW5GE5MNS0VZHYUV8UEQ9P,11,1525364712662,"{""time_elapsed"": 59248, ""trial_index"": 11, ""internal_node_id"": ""0.0-3.0-0.0"", ""group"": ""daxby"", ""correct"": true, ""response"": ""d"", ""rt"": 814, ""color"": ""yellow"", ""trial_type"": ""robot""}"
A2CJY4787IR70K:3F1567XTNW5GE5MNS0VZHYUV8UEQ9P,12,1525364717502,"{""time_elapsed"": 64088, ""trial_index"": 12, ""internal_node_id"": ""0.0-3.0-7.0"", ""group"": ""daxby"", ""correct"": false, ""response"": ""k"", ""rt"": 840, ""color"": ""blue"", ""trial_type"": ""robot""}"
A2CJY4787IR70K:3F1567XTNW5GE5MNS0VZHYUV8UEQ9P,13,1525364722117,"{""time_elapsed"": 68703, ""trial_index"": 13, ""internal_node_id"": ""0.0-3.0-4.0"", ""group"": ""daxby"", ""correct"": true, ""response"": ""d"", ""rt"": 615, ""color"": ""blue"", ""trial_type"": ""robot""}"
A2CJY4787IR70K:3F1567XTNW5GE5MNS0VZHYUV8UEQ9P,14,1525364726852,"{""time_elapsed"": 73438, ""trial_index"": 14, ""internal_node_id"": ""0.0-3.0-5.0"", ""group"": ""kizik"", ""correct"": false, ""response"": ""d"", ""rt"": 735, ""color"": ""yellow"", ""trial_type"": ""robot""}"
A2CJY4787IR70K:3F1567XTNW5GE5MNS0VZHYUV8UEQ9P,15,1525364732027,"{""time_elapsed"": 78613, ""trial_index"": 15, ""internal_node_id"": ""0.0-3.0-6.0"", ""group"": ""daxby"", ""correct"": true, ""response"": ""d"", ""rt"": 1174, ""color"": ""blue"", ""trial_type"": ""robot""}"
A2CJY4787IR70K:3F1567XTNW5GE5MNS0VZHYUV8UEQ9P,16,1525364736612,"{""time_elapsed"": 83198, ""trial_index"": 16, ""internal_node_id"": ""0.0-3.0-8.0"", ""group"": ""daxby"", ""correct"": true, ""response"": ""d"", ""rt"": 582, ""color"": ""blue"", ""trial_type"": ""robot""}"
A2CJY4787IR70K:3F1567XTNW5GE5MNS0VZHYUV8UEQ9P,17,1525364741282,"{""time_elapsed"": 87868, ""trial_index"": 17, ""internal_node_id"": ""0.0-3.0-2.0"", ""group"": ""kizik"", ""correct"": true, ""response"": ""k"", ""rt"": 669, ""color"": ""yellow"", ""trial_type"": ""robot""}"
A2CJY4787IR70K:3F1567XTNW5GE5MNS0VZHYUV8UEQ9P,18,1525364746162,"{""time_elapsed"": 92748, ""trial_index"": 18, ""internal_node_id"": ""0.0-3.0-1.0"", ""group"": ""kizik"", ""correct"": false, ""response"": ""d"", ""rt"": 877, ""color"": ""blue"", ""trial_type"": ""robot""}"
A2CJY4787IR70K:3F1567XTNW5GE5MNS0VZHYUV8UEQ9P,19,1525364751027,"{""time_elapsed"": 97613, ""trial_index"": 19, ""internal_node_id"": ""0.0-3.0-3.0"", ""group"": ""daxby"", ""correct"": false, ""response"": ""k"", ""rt"": 864, ""color"": ""blue"", ""trial_type"": ""robot""}"
A2CJY4787IR70K:3F1567XTNW5GE5MNS0VZHYUV8UEQ9P,20,1525364756363,"{""time_elapsed"": 102949, ""trial_index"": 20, ""responses"": 62, ""internal_node_id"": ""0.0-4.0"", ""tag"": ""kizik"", ""trial_type"": ""slider""}"
A2CJY4787IR70K:3F1567XTNW5GE5MNS0VZHYUV8UEQ9P,21,1525364761586,"{""time_elapsed"": 108172, ""trial_index"": 21, ""responses"": 63, ""internal_node_id"": ""0.0-5.0"", ""tag"": ""daxby"", ""trial_type"": ""slider""}"
A2CJY4787IR70K:3F1567XTNW5GE5MNS0VZHYUV8UEQ9P,22,1525364763473,"{""time_elapsed"": 110059, ""trial_index"": 22, ""internal_node_id"": ""0.0-6.0"", ""stimulus"": [""<p>Thanks so much for participating in this research.</p>Your final bonus is $0.12""], ""button_pressed"": 0, ""rt"": 886, ""trial_type"": ""button-response""}"
A3AEYHICO97IDU:3U8YCDAGXPGYIBYAS4C6ONT25QK0QN,0,1525364695406,"{""internal_node_id"": ""0.0-0.0"", ""trial_index"": 0, ""time_elapsed"": 25537, ""view_history"": ""[{\""page_index\"":0,\""viewing_time\"":14735},{\""page_index\"":1,\""viewing_time\"":8370},{\""page_index\"":2,\""viewing_time\"":2432}]"", ""rt"": 25537, ""trial_type"": ""instructions""}"
A3AEYHICO97IDU:3U8YCDAGXPGYIBYAS4C6ONT25QK0QN,1,1525364699359,"{""time_elapsed"": 29491, ""trial_index"": 1, ""internal_node_id"": ""0.0-1.0"", ""stimulus"": ""\n\t\t\t\t<h1>Instructions Complete</h1>\n\n\t\t\t\tYou're now ready to begin seeing robots and predicting where they are from.\n\t\t\t\tYou will see 18 robots in total.\n\t\t\t\tRemember, you earn one cent for each correct prediction. Good luck!\n\t\t\t"", ""button_pressed"": 0, ""rt"": 2949, ""trial_type"": ""button-response""}"
A3AEYHICO97IDU:3U8YCDAGXPGYIBYAS4C6ONT25QK0QN,2,1525364706229,"{""time_elapsed"": 36361, ""trial_index"": 2, ""internal_node_id"": ""0.0-2.0-7.0"", ""group"": ""daxby"", ""correct"": true, ""response"": ""d"", ""rt"": 2864, ""color"": ""blue"", ""trial_type"": ""robot""}"
A3AEYHICO97IDU:3U8YCDAGXPGYIBYAS4C6ONT25QK0QN,3,1525364711162,"{""time_elapsed"": 41294, ""trial_index"": 3, ""internal_node_id"": ""0.0-2.0-5.0"", ""group"": ""daxby"", ""correct"": true, ""response"": ""d"", ""rt"": 742, ""color"": ""blue"", ""trial_type"": ""robot""}"
A3AEYHICO97IDU:3U8YCDAGXPGYIBYAS4C6ONT25QK0QN,4,1525364717437,"{""time_elapsed"": 47569, ""trial_index"": 4, ""internal_node_id"": ""0.0-2.0-2.0"", ""group"": ""kizik"", ""correct"": true, ""response"": ""k"", ""rt"": 2270, ""color"": ""yellow"", ""trial_type"": ""robot""}"
A3AEYHICO97IDU:3U8YCDAGXPGYIBYAS4C6ONT25QK0QN,5,1525364721984,"{""time_elapsed"": 52115, ""trial_index"": 5, ""internal_node_id"": ""0.0-2.0-1.0"", ""group"": ""daxby"", ""correct"": true, ""response"": ""d"", ""rt"": 541, ""color"": ""blue"", ""trial_type"": ""robot""}"
A3AEYHICO97IDU:3U8YCDAGXPGYIBYAS4C6ONT25QK0QN,6,1525364726467,"{""time_elapsed"": 56599, ""trial_index"": 6, ""internal_node_id"": ""0.0-2.0-0.0"", ""group"": ""daxby"", ""correct"": true, ""response"": ""d"", ""rt"": 480, ""color"": ""blue"", ""trial_type"": ""robot""}"
A3AEYHICO97IDU:3U8YCDAGXPGYIBYAS4C6ONT25QK0QN,7,1525364731279,"{""time_elapsed"": 61411, ""trial_index"": 7, ""internal_node_id"": ""0.0-2.0-4.0"", ""group"": ""kizik"", ""correct"": true, ""response"": ""k"", ""rt"": 808, ""color"": ""yellow"", ""trial_type"": ""robot""}"
A3AEYHICO97IDU:3U8YCDAGXPGYIBYAS4C6ONT25QK0QN,8,1525364735802,"{""time_elapsed"": 65934, ""trial_index"": 8, ""internal_node_id"": ""0.0-2.0-6.0"", ""group"": ""daxby"", ""correct"": false, ""response"": ""k"", ""rt"": 521, ""color"": ""yellow"", ""trial_type"": ""robot""}"
A3AEYHICO97IDU:3U8YCDAGXPGYIBYAS4C6ONT25QK0QN,9,1525364740209,"{""time_elapsed"": 70341, ""trial_index"": 9, ""internal_node_id"": ""0.0-2.0-8.0"", ""group"": ""daxby"", ""correct"": true, ""response"": ""d"", ""rt"": 403, ""color"": ""blue"", ""trial_type"": ""robot""}"
A3AEYHICO97IDU:3U8YCDAGXPGYIBYAS4C6ONT25QK0QN,10,1525364744673,"{""time_elapsed"": 74805, ""trial_index"": 10, ""internal_node_id"": ""0.0-2.0-3.0"", ""group"": ""daxby"", ""correct"": true, ""response"": ""d"", ""rt"": 461, ""color"": ""blue"", ""trial_type"": ""robot""}"
A3AEYHICO97IDU:3U8YCDAGXPGYIBYAS4C6ONT25QK0QN,11,1525364749092,"{""time_elapsed"": 79224, ""trial_index"": 11, ""internal_node_id"": ""0.0-3.0-3.0"", ""group"": ""kizik"", ""correct"": false, ""response"": ""d"", ""rt"": 414, ""color"": ""blue"", ""trial_type"": ""robot""}"
A3AEYHICO97IDU:3U8YCDAGXPGYIBYAS4C6ONT25QK0QN,12,1525364753504,"{""time_elapsed"": 83636, ""trial_index"": 12, ""internal_node_id"": ""0.0-3.0-8.0"", ""group"": ""kizik"", ""correct"": false, ""response"": ""d"", ""rt"": 409, ""color"": ""blue"", ""trial_type"": ""robot""}"
A3AEYHICO97IDU:3U8YCDAGXPGYIBYAS4C6ONT25QK0QN,13,1525364758180,"{""time_elapsed"": 88312, ""trial_index"": 13, ""internal_node_id"": ""0.0-3.0-4.0"", ""group"": ""daxby"", ""correct"": false, ""response"": ""k"", ""rt"": 671, ""color"": ""yellow"", ""trial_type"": ""robot""}"
A3AEYHICO97IDU:3U8YCDAGXPGYIBYAS4C6ONT25QK0QN,14,1525364762702,"{""time_elapsed"": 92834, ""trial_index"": 14, ""internal_node_id"": ""0.0-3.0-2.0"", ""group"": ""daxby"", ""correct"": false, ""response"": ""k"", ""rt"": 519, ""color"": ""blue"", ""trial_type"": ""robot""}"
A3AEYHICO97IDU:3U8YCDAGXPGYIBYAS4C6ONT25QK0QN,15,1525364767241,"{""time_elapsed"": 97373, ""trial_index"": 15, ""internal_node_id"": ""0.0-3.0-6.0"", ""group"": ""daxby"", ""correct"": true, ""response"": ""d"", ""rt"": 534, ""color"": ""blue"", ""trial_type"": ""robot""}"
A3AEYHICO97IDU:3U8YCDAGXPGYIBYAS4C6ONT25QK0QN,16,1525364771660,"{""time_elapsed"": 101792, ""trial_index"": 16, ""internal_node_id"": ""0.0-3.0-5.0"", ""group"": ""kizik"", ""correct"": false, ""response"": ""d"", ""rt"": 326, ""color"": ""blue"", ""trial_type"": ""robot""}"
A3AEYHICO97IDU:3U8YCDAGXPGYIBYAS4C6ONT25QK0QN,17,1525364775809,"{""time_elapsed"": 105940, ""trial_index"": 17, ""internal_node_id"": ""0.0-3.0-7.0"", ""group"": ""daxby"", ""correct"": true, ""response"": ""d"", ""rt"": 145, ""color"": ""yellow"", ""trial_type"": ""robot""}"
A3AEYHICO97IDU:3U8YCDAGXPGYIBYAS4C6ONT25QK0QN,18,1525364779936,"{""time_elapsed"": 110068, ""trial_index"": 18, ""internal_node_id"": ""0.0-3.0-0.0"", ""group"": ""daxby"", ""correct"": true, ""response"": ""d"", ""rt"": 122, ""color"": ""yellow"", ""trial_type"": ""robot""}"
A3AEYHICO97IDU:3U8YCDAGXPGYIBYAS4C6ONT25QK0QN,19,1525364784127,"{""time_elapsed"": 114259, ""trial_index"": 19, ""internal_node_id"": ""0.0-3.0-1.0"", ""group"": ""kizik"", ""correct"": false, ""response"": ""d"", ""rt"": 186, ""color"": ""blue"", ""trial_type"": ""robot""}"
A3AEYHICO97IDU:3U8YCDAGXPGYIBYAS4C6ONT25QK0QN,20,1525364791523,"{""time_elapsed"": 121655, ""trial_index"": 20, ""responses"": 50, ""internal_node_id"": ""0.0-4.0"", ""tag"": ""kizik"", ""trial_type"": ""slider""}"
A3AEYHICO97IDU:3U8YCDAGXPGYIBYAS4C6ONT25QK0QN,21,1525364798051,"{""time_elapsed"": 128183, ""trial_index"": 21, ""responses"": 50, ""internal_node_id"": ""0.0-5.0"", ""tag"": ""daxby"", ""trial_type"": ""slider""}"
A3AEYHICO97IDU:3U8YCDAGXPGYIBYAS4C6ONT25QK0QN,22,1525364800251,"{""time_elapsed"": 130383, ""trial_index"": 22, ""internal_node_id"": ""0.0-6.0"", ""stimulus"": [""<p>Thanks so much for participating in this research.</p>Your final bonus is $0.11""], ""button_pressed"": 0, ""rt"": 1196, ""trial_type"": ""button-response""}"
A2CF2BD4Q0ZDJN:3SLE99ER0ND8GQ2BDGS8ZX1P1X5BZH,0,1525364729010,"{""internal_node_id"": ""0.0-0.0"", ""trial_index"": 0, ""time_elapsed"": 45323, ""view_history"": ""[{\""page_index\"":0,\""viewing_time\"":10603},{\""page_index\"":1,\""viewing_time\"":28736},{\""page_index\"":2,\""viewing_time\"":5983}]"", ""rt"": 45323, ""trial_type"": ""instructions""}"
A2CF2BD4Q0ZDJN:3SLE99ER0ND8GQ2BDGS8ZX1P1X5BZH,1,1525364756842,"{""time_elapsed"": 73156, ""trial_index"": 1, ""responses"": {""Q0"": ""9388760""}, ""internal_node_id"": ""0.0-1.0"", ""rt"": 26824, ""trial_type"": ""survey-text-force""}"
A2CF2BD4Q0ZDJN:3SLE99ER0ND8GQ2BDGS8ZX1P1X5BZH,2,1525364762480,"{""time_elapsed"": 78794, ""trial_index"": 2, ""internal_node_id"": ""0.0-2.0"", ""stimulus"": ""\n\t\t\t\t<h1>Instructions Complete</h1>\n\n\t\t\t\tYou're now ready to begin seeing robots and predicting where they are from.\n\t\t\t\tYou will see 18 robots in total.\n\t\t\t\tRemember, you earn one cent for each correct prediction. Good luck!\n\t\t\t"", ""button_pressed"": 0, ""rt"": 4635, ""trial_type"": ""button-response""}"
A2CF2BD4Q0ZDJN:3SLE99ER0ND8GQ2BDGS8ZX1P1X5BZH,3,1525364771522,"{""time_elapsed"": 87836, ""trial_index"": 3, ""internal_node_id"": ""0.0-3.0-7.0"", ""group"": ""daxby"", ""correct"": true, ""response"": ""d"", ""rt"": 5036, ""color"": ""blue"", ""trial_type"": ""robot""}"
A2CF2BD4Q0ZDJN:3SLE99ER0ND8GQ2BDGS8ZX1P1X5BZH,4,1525364777529,"{""time_elapsed"": 93843, ""trial_index"": 4, ""internal_node_id"": ""0.0-3.0-3.0"", ""group"": ""daxby"", ""correct"": true, ""response"": ""d"", ""rt"": 2003, ""color"": ""yellow"", ""trial_type"": ""robot""}"
A2CF2BD4Q0ZDJN:3SLE99ER0ND8GQ2BDGS8ZX1P1X5BZH,5,1525364782993,"{""time_elapsed"": 99307, ""trial_index"": 5, ""internal_node_id"": ""0.0-3.0-8.0"", ""group"": ""kizik"", ""correct"": false, ""response"": ""d"", ""rt"": 1462, ""color"": ""blue"", ""trial_type"": ""robot""}"
A2CF2BD4Q0ZDJN:3SLE99ER0ND8GQ2BDGS8ZX1P1X5BZH,6,1525364787385,"{""time_elapsed"": 103699, ""trial_index"": 6, ""internal_node_id"": ""0.0-3.0-6.0"", ""group"": ""kizik"", ""correct"": false, ""response"": ""d"", ""rt"": 389, ""color"": ""blue"", ""trial_type"": ""robot""}"
A2CF2BD4Q0ZDJN:3SLE99ER0ND8GQ2BDGS8ZX1P1X5BZH,7,1525364791753,"{""time_elapsed"": 108067, ""trial_index"": 7, ""internal_node_id"": ""0.0-3.0-2.0"", ""group"": ""daxby"", ""correct"": true, ""response"": ""d"", ""rt"": 363, ""color"": ""blue"", ""trial_type"": ""robot""}"
A2CF2BD4Q0ZDJN:3SLE99ER0ND8GQ2BDGS8ZX1P1X5BZH,8,1525364796176,"{""time_elapsed"": 112490, ""trial_index"": 8, ""internal_node_id"": ""0.0-3.0-5.0"", ""group"": ""daxby"", ""correct"": true, ""response"": ""d"", ""rt"": 421, ""color"": ""blue"", ""trial_type"": ""robot""}"
A2CF2BD4Q0ZDJN:3SLE99ER0ND8GQ2BDGS8ZX1P1X5BZH,9,1525364800665,"{""time_elapsed"": 116979, ""trial_index"": 9, ""internal_node_id"": ""0.0-3.0-4.0"", ""group"": ""daxby"", ""correct"": true, ""response"": ""d"", ""rt"": 486, ""color"": ""yellow"", ""trial_type"": ""robot""}"
A2CF2BD4Q0ZDJN:3SLE99ER0ND8GQ2BDGS8ZX1P1X5BZH,10,1525364807696,"{""time_elapsed"": 124010, ""trial_index"": 10, ""internal_node_id"": ""0.0-3.0-1.0"", ""group"": ""daxby"", ""correct"": true, ""response"": ""d"", ""rt"": 3028, ""color"": ""blue"", ""trial_type"": ""robot""}"
A2CF2BD4Q0ZDJN:3SLE99ER0ND8GQ2BDGS8ZX1P1X5BZH,11,1525364811736,"{""time_elapsed"": 128050, ""trial_index"": 11, ""internal_node_id"": ""0.0-3.0-0.0"", ""group"": ""daxby"", ""correct"": true, ""response"": ""d"", ""rt"": 36, ""color"": ""blue"", ""trial_type"": ""robot""}"
A2CF2BD4Q0ZDJN:3SLE99ER0ND8GQ2BDGS8ZX1P1X5BZH,12,1525364820920,"{""time_elapsed"": 137234, ""trial_index"": 12, ""responses"": {""Q0"": ""9388760""}, ""internal_node_id"": ""0.0-4.0"", ""rt"": 8182, ""trial_type"": ""survey-text-force""}"
A2CF2BD4Q0ZDJN:3SLE99ER0ND8GQ2BDGS8ZX1P1X5BZH,13,1525364825368,"{""time_elapsed"": 141682, ""trial_index"": 13, ""internal_node_id"": ""0.0-5.0"", ""stimulus"": ""\n\t\t\t\t<strong style='color: green'>Correct!</strong><br>\n\t\t\t\tThe number was <b>9388760</b>.<br>\n\t\t\t\tPlease keep the number in memory because we will ask you to recall it again.\n\t\t\t"", ""button_pressed"": 0, ""rt"": 3446, ""trial_type"": ""button-response""}"
A2CF2BD4Q0ZDJN:3SLE99ER0ND8GQ2BDGS8ZX1P1X5BZH,14,1525364830888,"{""time_elapsed"": 147202, ""trial_index"": 14, ""internal_node_id"": ""0.0-6.0-6.0"", ""group"": ""kizik"", ""correct"": false, ""response"": ""d"", ""rt"": 1518, ""color"": ""yellow"", ""trial_type"": ""robot""}"
A2CF2BD4Q0ZDJN:3SLE99ER0ND8GQ2BDGS8ZX1P1X5BZH,15,1525364835616,"{""time_elapsed"": 151930, ""trial_index"": 15, ""internal_node_id"": ""0.0-6.0-2.0"", ""group"": ""daxby"", ""correct"": true, ""response"": ""d"", ""rt"": 724, ""color"": ""blue"", ""trial_type"": ""robot""}"
A2CF2BD4Q0ZDJN:3SLE99ER0ND8GQ2BDGS8ZX1P1X5BZH,16,1525364840609,"{""time_elapsed"": 156923, ""trial_index"": 16, ""internal_node_id"": ""0.0-6.0-5.0"", ""group"": ""daxby"", ""correct"": true, ""response"": ""d"", ""rt"": 990, ""color"": ""blue"", ""trial_type"": ""robot""}"
A2CF2BD4Q0ZDJN:3SLE99ER0ND8GQ2BDGS8ZX1P1X5BZH,17,1525364844978,"{""time_elapsed"": 161292, ""trial_index"": 17, ""internal_node_id"": ""0.0-6.0-4.0"", ""group"": ""kizik"", ""correct"": false, ""response"": ""d"", ""rt"": 364, ""color"": ""blue"", ""trial_type"": ""robot""}"
A2CF2BD4Q0ZDJN:3SLE99ER0ND8GQ2BDGS8ZX1P1X5BZH,18,1525364849352,"{""time_elapsed"": 165666, ""trial_index"": 18, ""internal_node_id"": ""0.0-6.0-3.0"", ""group"": ""kizik"", ""correct"": false, ""response"": ""d"", ""rt"": 371, ""color"": ""yellow"", ""trial_type"": ""robot""}"
A2CF2BD4Q0ZDJN:3SLE99ER0ND8GQ2BDGS8ZX1P1X5BZH,19,1525364853912,"{""time_elapsed"": 170226, ""trial_index"": 19, ""internal_node_id"": ""0.0-6.0-7.0"", ""group"": ""kizik"", ""correct"": false, ""response"": ""d"", ""rt"": 557, ""color"": ""blue"", ""trial_type"": ""robot""}"
A2CF2BD4Q0ZDJN:3SLE99ER0ND8GQ2BDGS8ZX1P1X5BZH,20,1525364858253,"{""time_elapsed"": 174567, ""trial_index"": 20, ""internal_node_id"": ""0.0-6.0-0.0"", ""group"": ""daxby"", ""correct"": true, ""response"": ""d"", ""rt"": 335, ""color"": ""blue"", ""trial_type"": ""robot""}"
A2CF2BD4Q0ZDJN:3SLE99ER0ND8GQ2BDGS8ZX1P1X5BZH,21,1525364862706,"{""time_elapsed"": 179020, ""trial_index"": 21, ""internal_node_id"": ""0.0-6.0-1.0"", ""group"": ""daxby"", ""correct"": true, ""response"": ""d"", ""rt"": 447, ""color"": ""yellow"", ""trial_type"": ""robot""}"
A2CF2BD4Q0ZDJN:3SLE99ER0ND8GQ2BDGS8ZX1P1X5BZH,22,1525364867098,"{""time_elapsed"": 183412, ""trial_index"": 22, ""internal_node_id"": ""0.0-6.0-8.0"", ""group"": ""daxby"", ""correct"": true, ""response"": ""d"", ""rt"": 387, ""color"": ""yellow"", ""trial_type"": ""robot""}"
A2CF2BD4Q0ZDJN:3SLE99ER0ND8GQ2BDGS8ZX1P1X5BZH,23,1525364874688,"{""time_elapsed"": 191002, ""trial_index"": 23, ""responses"": {""Q0"": ""9388760""}, ""internal_node_id"": ""0.0-7.0"", ""rt"": 6589, ""trial_type"": ""survey-text-force""}"
A2CF2BD4Q0ZDJN:3SLE99ER0ND8GQ2BDGS8ZX1P1X5BZH,24,1525364890481,"{""time_elapsed"": 206795, ""trial_index"": 24, ""responses"": 33, ""internal_node_id"": ""0.0-8.0"", ""tag"": ""kizik"", ""trial_type"": ""slider""}"
A2CF2BD4Q0ZDJN:3SLE99ER0ND8GQ2BDGS8ZX1P1X5BZH,25,1525364903504,"{""time_elapsed"": 219818, ""trial_index"": 25, ""responses"": 10, ""internal_node_id"": ""0.0-9.0"", ""tag"": ""daxby"", ""trial_type"": ""slider""}"
A2CF2BD4Q0ZDJN:3SLE99ER0ND8GQ2BDGS8ZX1P1X5BZH,26,1525364906248,"{""time_elapsed"": 222562, ""trial_index"": 26, ""internal_node_id"": ""0.0-10.0"", ""stimulus"": [""<p>Thanks so much for participating in this research.</p>Your final bonus is $0.12""], ""button_pressed"": 0, ""rt"": 1741, ""trial_type"": ""button-response""}"
A250FES5PFCGK9:3LQ8PUHQFLSWCDGND4EILD1X0X5IH4,0,1525365274438,"{""internal_node_id"": ""0.0-0.0"", ""trial_index"": 0, ""time_elapsed"": 67553, ""view_history"": ""[{\""page_index\"":0,\""viewing_time\"":7170},{\""page_index\"":1,\""viewing_time\"":54104},{\""page_index\"":2,\""viewing_time\"":6276}]"", ""rt"": 67552, ""trial_type"": ""instructions""}"
A250FES5PFCGK9:3LQ8PUHQFLSWCDGND4EILD1X0X5IH4,1,1525365296706,"{""time_elapsed"": 89822, ""trial_index"": 1, ""responses"": {""Q0"": ""3073663""}, ""internal_node_id"": ""0.0-1.0"", ""rt"": 21256, ""trial_type"": ""survey-text-force""}"
A250FES5PFCGK9:3LQ8PUHQFLSWCDGND4EILD1X0X5IH4,2,1525365304829,"{""time_elapsed"": 97945, ""trial_index"": 2, ""internal_node_id"": ""0.0-2.0"", ""stimulus"": ""\n\t\t\t\t<h1>Instructions Complete</h1>\n\n\t\t\t\tYou're now ready to begin seeing robots and predicting where they are from.\n\t\t\t\tYou will see 18 robots in total.\n\t\t\t\tRemember, you earn one cent for each correct prediction. Good luck!\n\t\t\t"", ""button_pressed"": 0, ""rt"": 7117, ""trial_type"": ""button-response""}"
A250FES5PFCGK9:3LQ8PUHQFLSWCDGND4EILD1X0X5IH4,3,1525365311725,"{""time_elapsed"": 104841, ""trial_index"": 3, ""internal_node_id"": ""0.0-3.0-5.0"", ""group"": ""daxby"", ""correct"": true, ""response"": ""d"", ""rt"": 2890, ""color"": ""yellow"", ""trial_type"": ""robot""}"
A250FES5PFCGK9:3LQ8PUHQFLSWCDGND4EILD1X0X5IH4,4,1525365317700,"{""time_elapsed"": 110816, ""trial_index"": 4, ""internal_node_id"": ""0.0-3.0-4.0"", ""group"": ""daxby"", ""correct"": false, ""response"": ""k"", ""rt"": 1970, ""color"": ""blue"", ""trial_type"": ""robot""}"
A250FES5PFCGK9:3LQ8PUHQFLSWCDGND4EILD1X0X5IH4,5,1525365323093,"{""time_elapsed"": 116209, ""trial_index"": 5, ""internal_node_id"": ""0.0-3.0-8.0"", ""group"": ""daxby"", ""correct"": true, ""response"": ""d"", ""rt"": 1388, ""color"": ""blue"", ""trial_type"": ""robot""}"
A250FES5PFCGK9:3LQ8PUHQFLSWCDGND4EILD1X0X5IH4,6,1525365328292,"{""time_elapsed"": 121408, ""trial_index"": 6, ""internal_node_id"": ""0.0-3.0-0.0"", ""group"": ""kizik"", ""correct"": false, ""response"": ""d"", ""rt"": 1196, ""color"": ""yellow"", ""trial_type"": ""robot""}"
A250FES5PFCGK9:3LQ8PUHQFLSWCDGND4EILD1X0X5IH4,7,1525365333575,"{""time_elapsed"": 126691, ""trial_index"": 7, ""internal_node_id"": ""0.0-3.0-3.0"", ""group"": ""daxby"", ""correct"": true, ""response"": ""d"", ""rt"": 1281, ""color"": ""yellow"", ""trial_type"": ""robot""}"
A250FES5PFCGK9:3LQ8PUHQFLSWCDGND4EILD1X0X5IH4,8,1525365339616,"{""time_elapsed"": 132732, ""trial_index"": 8, ""internal_node_id"": ""0.0-3.0-6.0"", ""group"": ""daxby"", ""correct"": true, ""response"": ""d"", ""rt"": 2037, ""color"": ""blue"", ""trial_type"": ""robot""}"
A250FES5PFCGK9:3LQ8PUHQFLSWCDGND4EILD1X0X5IH4,9,1525365344874,"{""time_elapsed"": 137990, ""trial_index"": 9, ""internal_node_id"": ""0.0-3.0-1.0"", ""group"": ""daxby"", ""correct"": true, ""response"": ""d"", ""rt"": 1250, ""color"": ""yellow"", ""trial_type"": ""robot""}"
A250FES5PFCGK9:3LQ8PUHQFLSWCDGND4EILD1X0X5IH4,10,1525365349900,"{""time_elapsed"": 143016, ""trial_index"": 10, ""internal_node_id"": ""0.0-3.0-2.0"", ""group"": ""kizik"", ""correct"": false, ""response"": ""d"", ""rt"": 1024, ""color"": ""blue"", ""trial_type"": ""robot""}"
A250FES5PFCGK9:3LQ8PUHQFLSWCDGND4EILD1X0X5IH4,11,1525365354819,"{""time_elapsed"": 147934, ""trial_index"": 11, ""internal_node_id"": ""0.0-3.0-7.0"", ""group"": ""kizik"", ""correct"": false, ""response"": ""d"", ""rt"": 914, ""color"": ""blue"", ""trial_type"": ""robot""}"
A250FES5PFCGK9:3LQ8PUHQFLSWCDGND4EILD1X0X5IH4,12,1525365365219,"{""time_elapsed"": 158335, ""trial_index"": 12, ""responses"": {""Q0"": ""3073663""}, ""internal_node_id"": ""0.0-4.0"", ""rt"": 9395, ""trial_type"": ""survey-text-force""}"
A250FES5PFCGK9:3LQ8PUHQFLSWCDGND4EILD1X0X5IH4,13,1525365368910,"{""time_elapsed"": 162026, ""trial_index"": 13, ""internal_node_id"": ""0.0-5.0"", ""stimulus"": ""\n\t\t\t\t<strong style='color: green'>Correct!</strong><br>\n\t\t\t\tThe number was <b>3073663</b>.<br>\n\t\t\t\tPlease keep the number in memory because we will ask you to recall it again.\n\t\t\t"", ""button_pressed"": 0, ""rt"": 2688, ""trial_type"": ""button-response""}"
A250FES5PFCGK9:3LQ8PUHQFLSWCDGND4EILD1X0X5IH4,14,1525365374004,"{""time_elapsed"": 167120, ""trial_index"": 14, ""internal_node_id"": ""0.0-6.0-1.0"", ""group"": ""daxby"", ""correct"": true, ""response"": ""d"", ""rt"": 1092, ""color"": ""blue"", ""trial_type"": ""robot""}"
A250FES5PFCGK9:3LQ8PUHQFLSWCDGND4EILD1X0X5IH4,15,1525365379404,"{""time_elapsed"": 172519, ""trial_index"": 15, ""internal_node_id"": ""0.0-6.0-4.0"", ""group"": ""daxby"", ""correct"": true, ""response"": ""d"", ""rt"": 1395, ""color"": ""blue"", ""trial_type"": ""robot""}"
A250FES5PFCGK9:3LQ8PUHQFLSWCDGND4EILD1X0X5IH4,16,1525365384934,"{""time_elapsed"": 178050, ""trial_index"": 16, ""internal_node_id"": ""0.0-6.0-0.0"", ""group"": ""kizik"", ""correct"": false, ""response"": ""d"", ""rt"": 1526, ""color"": ""blue"", ""trial_type"": ""robot""}"
A250FES5PFCGK9:3LQ8PUHQFLSWCDGND4EILD1X0X5IH4,17,1525365389327,"{""time_elapsed"": 182443, ""trial_index"": 17, ""internal_node_id"": ""0.0-6.0-5.0"", ""group"": ""daxby"", ""correct"": true, ""response"": ""d"", ""rt"": 389, ""color"": ""blue"", ""trial_type"": ""robot""}"
A250FES5PFCGK9:3LQ8PUHQFLSWCDGND4EILD1X0X5IH4,18,1525365393952,"{""time_elapsed"": 187068, ""trial_index"": 18, ""internal_node_id"": ""0.0-6.0-2.0"", ""group"": ""kizik"", ""correct"": false, ""response"": ""d"", ""rt"": 622, ""color"": ""blue"", ""trial_type"": ""robot""}"
A250FES5PFCGK9:3LQ8PUHQFLSWCDGND4EILD1X0X5IH4,19,1525365398311,"{""time_elapsed"": 191427, ""trial_index"": 19, ""internal_node_id"": ""0.0-6.0-7.0"", ""group"": ""daxby"", ""correct"": true, ""response"": ""d"", ""rt"": 354, ""color"": ""blue"", ""trial_type"": ""robot""}"
A250FES5PFCGK9:3LQ8PUHQFLSWCDGND4EILD1X0X5IH4,20,1525365402685,"{""time_elapsed"": 195801, ""trial_index"": 20, ""internal_node_id"": ""0.0-6.0-6.0"", ""group"": ""daxby"", ""correct"": true, ""response"": ""d"", ""rt"": 369, ""color"": ""yellow"", ""trial_type"": ""robot""}"
A250FES5PFCGK9:3LQ8PUHQFLSWCDGND4EILD1X0X5IH4,21,1525365410341,"{""time_elapsed"": 203457, ""trial_index"": 21, ""internal_node_id"": ""0.0-6.0-8.0"", ""group"": ""kizik"", ""correct"": true, ""response"": ""k"", ""rt"": 3653, ""color"": ""yellow"", ""trial_type"": ""robot""}"
A250FES5PFCGK9:3LQ8PUHQFLSWCDGND4EILD1X0X5IH4,22,1525365414853,"{""time_elapsed"": 207968, ""trial_index"": 22, ""internal_node_id"": ""0.0-6.0-3.0"", ""group"": ""daxby"", ""correct"": true, ""response"": ""d"", ""rt"": 510, ""color"": ""blue"", ""trial_type"": ""robot""}"
A250FES5PFCGK9:3LQ8PUHQFLSWCDGND4EILD1X0X5IH4,23,1525365432493,"{""time_elapsed"": 225609, ""trial_index"": 23, ""responses"": {""Q0"": ""3073663""}, ""internal_node_id"": ""0.0-7.0"", ""rt"": 16634, ""trial_type"": ""survey-text-force""}"
A250FES5PFCGK9:3LQ8PUHQFLSWCDGND4EILD1X0X5IH4,24,1525365456707,"{""time_elapsed"": 249822, ""trial_index"": 24, ""responses"": 10, ""internal_node_id"": ""0.0-8.0"", ""tag"": ""kizik"", ""trial_type"": ""slider""}"
A250FES5PFCGK9:3LQ8PUHQFLSWCDGND4EILD1X0X5IH4,25,1525365461333,"{""time_elapsed"": 254449, ""trial_index"": 25, ""responses"": 50, ""internal_node_id"": ""0.0-9.0"", ""tag"": ""daxby"", ""trial_type"": ""slider""}"
A250FES5PFCGK9:3LQ8PUHQFLSWCDGND4EILD1X0X5IH4,26,1525365465201,"{""time_elapsed"": 258317, ""trial_index"": 26, ""internal_node_id"": ""0.0-10.0"", ""stimulus"": [""<p>Thanks so much for participating in this research.</p>Your final bonus is $0.12""], ""button_pressed"": 0, ""rt"": 2866, ""trial_type"": ""button-response""}"
debuggTCBM:debug6xvQ1,0,1525124176320,"{""internal_node_id"": ""0.0-0.0"", ""trial_index"": 0, ""time_elapsed"": 8738, ""view_history"": ""[{\""page_index\"":0,\""viewing_time\"":7704},{\""page_index\"":1,\""viewing_time\"":1032}]"", ""rt"": 8737, ""trial_type"": ""instructions""}"
debuggTCBM:debug6xvQ1,1,1525124178308,"{""key_press"": 89, ""trial_index"": 1, ""internal_node_id"": ""0.0-1.0"", ""time_elapsed"": 10727, ""stimulus"": ""static/images/robot_land/population.png"", ""rt"": 982, ""trial_type"": ""single-stim""}"
debug4wppF:debugAlN0J,0,1525130652022,"{""internal_node_id"": ""0.0-0.0"", ""trial_index"": 0, ""time_elapsed"": 1020, ""view_history"": ""[{\""page_index\"":0,\""viewing_time\"":1018}]"", ""rt"": 1019, ""trial_type"": ""instructions""}"
debug4wppF:debugAlN0J,1,1525130654025,"{""key_press"": 89, ""trial_index"": 1, ""internal_node_id"": ""0.0-1.0"", ""time_elapsed"": 3023, ""stimulus"": ""static/images/population.png"", ""rt"": 996, ""trial_type"": ""single-stim""}"
debug4wppF:debugAlN0J,2,1525130659893,"{""time_elapsed"": 8891, ""trial_index"": 2, ""responses"": ""{\""Q0\"":\""8992507\""}"", ""internal_node_id"": ""0.0-2.0"", ""rt"": 4863, ""trial_type"": ""survey-text-force""}"
debug4wppF:debugAlN0J,3,1525130662046,"{""internal_node_id"": ""0.0-3.0"", ""trial_index"": 3, ""time_elapsed"": 11044, ""view_history"": ""[{\""page_index\"":0,\""viewing_time\"":1150}]"", ""rt"": 1150, ""trial_type"": ""instructions""}"
debug4wppF:debugAlN0J,4,1525130668432,"{""time_elapsed"": 17430, ""trial_index"": 4, ""internal_node_id"": ""0.0-4.0-1.0"", ""group"": ""daxby"", ""correct"": true, ""response"": ""d"", ""rt"": 1380, ""color"": ""blue"", ""trial_type"": ""robot""}"
debug4wppF:debugAlN0J,5,1525130673906,"{""time_elapsed"": 22904, ""trial_index"": 5, ""internal_node_id"": ""0.0-4.0-13.0"", ""group"": ""daxby"", ""correct"": false, ""response"": ""b"", ""rt"": 470, ""color"": ""yellow"", ""trial_type"": ""robot""}"
debug4wppF:debugAlN0J,6,1525130679270,"{""time_elapsed"": 28268, ""trial_index"": 6, ""internal_node_id"": ""0.0-4.0-17.0"", ""group"": ""boxby"", ""correct"": true, ""response"": ""b"", ""rt"": 360, ""color"": ""yellow"", ""trial_type"": ""robot""}"
debug4wppF:debugAlN0J,7,1525130684975,"{""time_elapsed"": 33972, ""trial_index"": 7, ""internal_node_id"": ""0.0-4.0-15.0"", ""group"": ""daxby"", ""correct"": true, ""response"": ""d"", ""rt"": 699, ""color"": ""yellow"", ""trial_type"": ""robot""}"
debug4wppF:debugAlN0J,8,1525130690588,"{""time_elapsed"": 39586, ""trial_index"": 8, ""internal_node_id"": ""0.0-4.0-14.0"", ""group"": ""daxby"", ""correct"": true, ""response"": ""d"", ""rt"": 608, ""color"": ""yellow"", ""trial_type"": ""robot""}"
debug4wppF:debugAlN0J,9,1525130696009,"{""time_elapsed"": 45007, ""trial_index"": 9, ""internal_node_id"": ""0.0-4.0-10.0"", ""group"": ""boxby"", ""correct"": true, ""response"": ""b"", ""rt"": 416, ""color"": ""blue"", ""trial_type"": ""robot""}"
debug4wppF:debugAlN0J,10,1525130705960,"{""time_elapsed"": 54958, ""trial_index"": 10, ""internal_node_id"": ""0.0-4.0-11.0"", ""group"": ""boxby"", ""correct"": false, ""response"": ""d"", ""rt"": 4945, ""color"": ""blue"", ""trial_type"": ""robot""}"
debug4wppF:debugAlN0J,11,1525130711412,"{""time_elapsed"": 60410, ""trial_index"": 11, ""internal_node_id"": ""0.0-4.0-12.0"", ""group"": ""daxby"", ""correct"": false, ""response"": ""b"", ""rt"": 447, ""color"": ""yellow"", ""trial_type"": ""robot""}"
debug4wppF:debugAlN0J,12,1525130786198,"{""time_elapsed"": 135196, ""trial_index"": 12, ""internal_node_id"": ""0.0-4.0-8.0"", ""group"": ""boxby"", ""correct"": false, ""response"": ""d"", ""rt"": 69783, ""color"": ""blue"", ""trial_type"": ""robot""}"
debug4wppF:debugAlN0J,13,1525130792199,"{""time_elapsed"": 141197, ""trial_index"": 13, ""internal_node_id"": ""0.0-4.0-2.0"", ""group"": ""daxby"", ""correct"": false, ""response"": ""b"", ""rt"": 998, ""color"": ""blue"", ""trial_type"": ""robot""}"
debug4wppF:debugAlN0J,14,1525130810361,"{""time_elapsed"": 159359, ""trial_index"": 14, ""internal_node_id"": ""0.0-4.0-5.0"", ""group"": ""daxby"", ""correct"": true, ""response"": ""d"", ""rt"": 13156, ""color"": ""blue"", ""trial_type"": ""robot""}"
debug4wppF:debugAlN0J,15,1525130815871,"{""time_elapsed"": 164869, ""trial_index"": 15, ""internal_node_id"": ""0.0-4.0-7.0"", ""group"": ""daxby"", ""correct"": false, ""response"": ""b"", ""rt"": 505, ""color"": ""blue"", ""trial_type"": ""robot""}"
debug4wppF:debugAlN0J,16,1525130821332,"{""time_elapsed"": 170330, ""trial_index"": 16, ""internal_node_id"": ""0.0-4.0-3.0"", ""group"": ""daxby"", ""correct"": true, ""response"": ""d"", ""rt"": 457, ""color"": ""blue"", ""trial_type"": ""robot""}"
debug4wppF:debugAlN0J,17,1525130826811,"{""time_elapsed"": 175809, ""trial_index"": 17, ""internal_node_id"": ""0.0-4.0-6.0"", ""group"": ""daxby"", ""correct"": false, ""response"": ""b"", ""rt"": 474, ""color"": ""blue"", ""trial_type"": ""robot""}"
debug4wppF:debugAlN0J,18,1525130832468,"{""time_elapsed"": 181466, ""trial_index"": 18, ""internal_node_id"": ""0.0-4.0-16.0"", ""group"": ""boxby"", ""correct"": false, ""response"": ""d"", ""rt"": 653, ""color"": ""yellow"", ""trial_type"": ""robot""}"
debug4wppF:debugAlN0J,19,1525130837924,"{""time_elapsed"": 186922, ""trial_index"": 19, ""internal_node_id"": ""0.0-4.0-9.0"", ""group"": ""boxby"", ""correct"": true, ""response"": ""b"", ""rt"": 452, ""color"": ""blue"", ""trial_type"": ""robot""}"
debug4wppF:debugAlN0J,20,1525130843397,"{""time_elapsed"": 192395, ""trial_index"": 20, ""internal_node_id"": ""0.0-4.0-4.0"", ""group"": ""daxby"", ""correct"": false, ""response"": ""b"", ""rt"": 467, ""color"": ""blue"", ""trial_type"": ""robot""}"
debug4wppF:debugAlN0J,21,1525130848928,"{""time_elapsed"": 197926, ""trial_index"": 21, ""internal_node_id"": ""0.0-4.0-0.0"", ""group"": ""daxby"", ""correct"": true, ""response"": ""d"", ""rt"": 525, ""color"": ""blue"", ""trial_type"": ""robot""}"
debug4wppF:debugAlN0J,22,1525130856002,"{""time_elapsed"": 205000, ""trial_index"": 22, ""responses"": ""{\""Q0\"":\""8992507\""}"", ""internal_node_id"": ""0.0-5.0"", ""rt"": 6069, ""trial_type"": ""survey-text""}"
debug4wppF:debugAlN0J,23,1525130860579,"{""time_elapsed"": 209577, ""trial_index"": 23, ""responses"": ""{\""Q0\"":\""4\"",\""Q1\"":\""5\""}"", ""internal_node_id"": ""0.0-6.0"", ""rt"": 3572, ""trial_type"": ""survey-text-force""}"
debug4wppF:debugAlN0J,24,1525130864270,"{""time_elapsed"": 213268, ""trial_index"": 24, ""responses"": ""{\""Q0\"":\""3\"",\""Q1\"":\""4\""}"", ""internal_node_id"": ""0.0-7.0"", ""rt"": 2689, ""trial_type"": ""survey-text-force""}"
debug4wppF:debugAlN0J,25,1525130868896,"{""time_elapsed"": 217894, ""trial_index"": 25, ""responses"": ""{\""Q0\"":\""2\"",\""Q1\"":\""2\""}"", ""internal_node_id"": ""0.0-8.0"", ""rt"": 3623, ""trial_type"": ""survey-text-force""}"
debug4wppF:debugAlN0J,26,1525130874742,"{""internal_node_id"": ""0.0-9.0"", ""trial_index"": 26, ""time_elapsed"": 223740, ""view_history"": ""[{\""page_index\"":0,\""viewing_time\"":4843}]"", ""rt"": 4844, ""trial_type"": ""instructions""}"
A1YSYI926BBOHW:3V0Z7YWSIY0XJTX5TQAUDYLPJGJ2V3,0,1525362849084,"{""internal_node_id"": ""0.0-0.0"", ""trial_index"": 0, ""time_elapsed"": 22545, ""view_history"": ""[{\""page_index\"":0,\""viewing_time\"":7183},{\""page_index\"":1,\""viewing_time\"":12938},{\""page_index\"":2,\""viewing_time\"":2422}]"", ""rt"": 22544, ""trial_type"": ""instructions""}"
A1YSYI926BBOHW:3V0Z7YWSIY0XJTX5TQAUDYLPJGJ2V3,1,1525362865466,"{""time_elapsed"": 38928, ""trial_index"": 1, ""responses"": {""Q0"": ""1444584""}, ""internal_node_id"": ""0.0-1.0"", ""rt"": 15371, ""trial_type"": ""survey-text-force""}"
A1YSYI926BBOHW:3V0Z7YWSIY0XJTX5TQAUDYLPJGJ2V3,2,1525362868231,"{""time_elapsed"": 41693, ""trial_index"": 2, ""internal_node_id"": ""0.0-2.0"", ""stimulus"": ""\n\t\t\t\t<h1>Instructions Complete</h1>\n\n\t\t\t\tYou're now ready to begin seeing robots and predicting where they are from.\n\t\t\t\tYou will see 18 robots in total.\n\t\t\t\tRemember, you earn one cent for each correct prediction. Good luck!\n\t\t\t"", ""button_pressed"": 0, ""rt"": 1762, ""trial_type"": ""button-response""}"
A1YSYI926BBOHW:3V0Z7YWSIY0XJTX5TQAUDYLPJGJ2V3,3,1525362875899,"{""time_elapsed"": 49361, ""trial_index"": 3, ""internal_node_id"": ""0.0-3.0-6.0"", ""group"": ""daxby"", ""correct"": true, ""response"": ""d"", ""rt"": 3661, ""color"": ""blue"", ""trial_type"": ""robot""}"
A1YSYI926BBOHW:3V0Z7YWSIY0XJTX5TQAUDYLPJGJ2V3,4,1525362880794,"{""time_elapsed"": 54255, ""trial_index"": 4, ""internal_node_id"": ""0.0-3.0-8.0"", ""group"": ""daxby"", ""correct"": true, ""response"": ""d"", ""rt"": 889, ""color"": ""blue"", ""trial_type"": ""robot""}"
A1YSYI926BBOHW:3V0Z7YWSIY0XJTX5TQAUDYLPJGJ2V3,5,1525362885884,"{""time_elapsed"": 59346, ""trial_index"": 5, ""internal_node_id"": ""0.0-3.0-0.0"", ""group"": ""kizik"", ""correct"": false, ""response"": ""d"", ""rt"": 1087, ""color"": ""blue"", ""trial_type"": ""robot""}"
A1YSYI926BBOHW:3V0Z7YWSIY0XJTX5TQAUDYLPJGJ2V3,6,1525362891458,"{""time_elapsed"": 64920, ""trial_index"": 6, ""internal_node_id"": ""0.0-3.0-4.0"", ""group"": ""daxby"", ""correct"": true, ""response"": ""d"", ""rt"": 1569, ""color"": ""yellow"", ""trial_type"": ""robot""}"
A1YSYI926BBOHW:3V0Z7YWSIY0XJTX5TQAUDYLPJGJ2V3,7,1525362896117,"{""time_elapsed"": 69579, ""trial_index"": 7, ""internal_node_id"": ""0.0-3.0-3.0"", ""group"": ""kizik"", ""correct"": false, ""response"": ""d"", ""rt"": 656, ""color"": ""yellow"", ""trial_type"": ""robot""}"
A1YSYI926BBOHW:3V0Z7YWSIY0XJTX5TQAUDYLPJGJ2V3,8,1525362900700,"{""time_elapsed"": 74162, ""trial_index"": 8, ""internal_node_id"": ""0.0-3.0-2.0"", ""group"": ""daxby"", ""correct"": true, ""response"": ""d"", ""rt"": 577, ""color"": ""yellow"", ""trial_type"": ""robot""}"
A1YSYI926BBOHW:3V0Z7YWSIY0XJTX5TQAUDYLPJGJ2V3,9,1525362905011,"{""time_elapsed"": 78473, ""trial_index"": 9, ""internal_node_id"": ""0.0-3.0-5.0"", ""group"": ""daxby"", ""correct"": true, ""response"": ""d"", ""rt"": 308, ""color"": ""yellow"", ""trial_type"": ""robot""}"
A1YSYI926BBOHW:3V0Z7YWSIY0XJTX5TQAUDYLPJGJ2V3,10,1525362909463,"{""time_elapsed"": 82925, ""trial_index"": 10, ""internal_node_id"": ""0.0-3.0-7.0"", ""group"": ""kizik"", ""correct"": false, ""response"": ""d"", ""rt"": 446, ""color"": ""blue"", ""trial_type"": ""robot""}"
A1YSYI926BBOHW:3V0Z7YWSIY0XJTX5TQAUDYLPJGJ2V3,11,1525362914438,"{""time_elapsed"": 87900, ""trial_index"": 11, ""internal_node_id"": ""0.0-3.0-1.0"", ""group"": ""kizik"", ""correct"": false, ""response"": ""d"", ""rt"": 971, ""color"": ""blue"", ""trial_type"": ""robot""}"
A1YSYI926BBOHW:3V0Z7YWSIY0XJTX5TQAUDYLPJGJ2V3,12,1525362920301,"{""time_elapsed"": 93762, ""trial_index"": 12, ""responses"": {""Q0"": ""1444584""}, ""internal_node_id"": ""0.0-4.0"", ""rt"": 4859, ""trial_type"": ""survey-text-force""}"
A1YSYI926BBOHW:3V0Z7YWSIY0XJTX5TQAUDYLPJGJ2V3,13,1525362923911,"{""time_elapsed"": 97373, ""trial_index"": 13, ""internal_node_id"": ""0.0-5.0"", ""stimulus"": ""\n\t\t\t\t<strong style='color: green'>Correct!</strong><br>\n\t\t\t\tThe number was <b>1444584</b>.<br>\n\t\t\t\tPlease keep the number in memory because we will ask you to recall it again.\n\t\t\t"", ""button_pressed"": 0, ""rt"": 2607, ""trial_type"": ""button-response""}"
A1YSYI926BBOHW:3V0Z7YWSIY0XJTX5TQAUDYLPJGJ2V3,14,1525362928740,"{""time_elapsed"": 102202, ""trial_index"": 14, ""internal_node_id"": ""0.0-6.0-5.0"", ""group"": ""daxby"", ""correct"": true, ""response"": ""d"", ""rt"": 821, ""color"": ""blue"", ""trial_type"": ""robot""}"
A1YSYI926BBOHW:3V0Z7YWSIY0XJTX5TQAUDYLPJGJ2V3,15,1525362933215,"{""time_elapsed"": 106677, ""trial_index"": 15, ""internal_node_id"": ""0.0-6.0-8.0"", ""group"": ""kizik"", ""correct"": false, ""response"": ""d"", ""rt"": 468, ""color"": ""yellow"", ""trial_type"": ""robot""}"
A1YSYI926BBOHW:3V0Z7YWSIY0XJTX5TQAUDYLPJGJ2V3,16,1525362937497,"{""time_elapsed"": 110958, ""trial_index"": 16, ""internal_node_id"": ""0.0-6.0-6.0"", ""group"": ""daxby"", ""correct"": true, ""response"": ""d"", ""rt"": 279, ""color"": ""blue"", ""trial_type"": ""robot""}"
A1YSYI926BBOHW:3V0Z7YWSIY0XJTX5TQAUDYLPJGJ2V3,17,1525362942032,"{""time_elapsed"": 115494, ""trial_index"": 17, ""internal_node_id"": ""0.0-6.0-0.0"", ""group"": ""daxby"", ""correct"": true, ""response"": ""d"", ""rt"": 531, ""color"": ""yellow"", ""trial_type"": ""robot""}"
A1YSYI926BBOHW:3V0Z7YWSIY0XJTX5TQAUDYLPJGJ2V3,18,1525362946261,"{""time_elapsed"": 119723, ""trial_index"": 18, ""internal_node_id"": ""0.0-6.0-2.0"", ""group"": ""kizik"", ""correct"": false, ""response"": ""d"", ""rt"": 225, ""color"": ""blue"", ""trial_type"": ""robot""}"
A1YSYI926BBOHW:3V0Z7YWSIY0XJTX5TQAUDYLPJGJ2V3,19,1525362950559,"{""time_elapsed"": 124021, ""trial_index"": 19, ""internal_node_id"": ""0.0-6.0-1.0"", ""group"": ""daxby"", ""correct"": true, ""response"": ""d"", ""rt"": 293, ""color"": ""blue"", ""trial_type"": ""robot""}"
A1YSYI926BBOHW:3V0Z7YWSIY0XJTX5TQAUDYLPJGJ2V3,20,1525362954832,"{""time_elapsed"": 128294, ""trial_index"": 20, ""internal_node_id"": ""0.0-6.0-3.0"", ""group"": ""daxby"", ""correct"": true, ""response"": ""d"", ""rt"": 267, ""color"": ""blue"", ""trial_type"": ""robot""}"
A1YSYI926BBOHW:3V0Z7YWSIY0XJTX5TQAUDYLPJGJ2V3,21,1525362959326,"{""time_elapsed"": 132787, ""trial_index"": 21, ""internal_node_id"": ""0.0-6.0-7.0"", ""group"": ""daxby"", ""correct"": true, ""response"": ""d"", ""rt"": 490, ""color"": ""blue"", ""trial_type"": ""robot""}"
A1YSYI926BBOHW:3V0Z7YWSIY0XJTX5TQAUDYLPJGJ2V3,22,1525362963565,"{""time_elapsed"": 137026, ""trial_index"": 22, ""internal_node_id"": ""0.0-6.0-4.0"", ""group"": ""daxby"", ""correct"": true, ""response"": ""d"", ""rt"": 233, ""color"": ""blue"", ""trial_type"": ""robot""}"
A1YSYI926BBOHW:3V0Z7YWSIY0XJTX5TQAUDYLPJGJ2V3,23,1525362969408,"{""time_elapsed"": 142870, ""trial_index"": 23, ""responses"": {""Q0"": ""1444584""}, ""internal_node_id"": ""0.0-7.0"", ""rt"": 4841, ""trial_type"": ""survey-text-force""}"
A1YSYI926BBOHW:3V0Z7YWSIY0XJTX5TQAUDYLPJGJ2V3,24,1525362983673,"{""time_elapsed"": 157135, ""trial_index"": 24, ""responses"": 30, ""internal_node_id"": ""0.0-8.0"", ""tag"": ""kizik"", ""trial_type"": ""slider""}"
A1YSYI926BBOHW:3V0Z7YWSIY0XJTX5TQAUDYLPJGJ2V3,25,1525362994698,"{""time_elapsed"": 168160, ""trial_index"": 25, ""responses"": 40, ""internal_node_id"": ""0.0-9.0"", ""tag"": ""daxby"", ""trial_type"": ""slider""}"
A1YSYI926BBOHW:3V0Z7YWSIY0XJTX5TQAUDYLPJGJ2V3,26,1525362997001,"{""time_elapsed"": 170463, ""trial_index"": 26, ""internal_node_id"": ""0.0-10.0"", ""stimulus"": [""<p>Thanks so much for participating in this research.</p>Your final bonus is $0.12""], ""button_pressed"": 0, ""rt"": 1299, ""trial_type"": ""button-response""}"
A1F1OZ54G177D8:3SKEMFQBZ35UPX5IA35OLGNBPI48KQ,0,1525362930949,"{""internal_node_id"": ""0.0-0.0"", ""trial_index"": 0, ""time_elapsed"": 40792, ""view_history"": ""[{\""page_index\"":0,\""viewing_time\"":34557},{\""page_index\"":1,\""viewing_time\"":3954},{\""page_index\"":2,\""viewing_time\"":2280}]"", ""rt"": 40792, ""trial_type"": ""instructions""}"
A1F1OZ54G177D8:3SKEMFQBZ35UPX5IA35OLGNBPI48KQ,1,1525362933332,"{""time_elapsed"": 43174, ""trial_index"": 1, ""internal_node_id"": ""0.0-1.0"", ""stimulus"": ""\n\t\t\t\t<h1>Instructions Complete</h1>\n\n\t\t\t\tYou're now ready to begin seeing robots and predicting where they are from.\n\t\t\t\tYou will see 18 robots in total.\n\t\t\t\tRemember, you earn one cent for each correct prediction. Good luck!\n\t\t\t"", ""button_pressed"": 0, ""rt"": 1378, ""trial_type"": ""button-response""}"
A1F1OZ54G177D8:3SKEMFQBZ35UPX5IA35OLGNBPI48KQ,2,1525362941922,"{""time_elapsed"": 51765, ""trial_index"": 2, ""internal_node_id"": ""0.0-2.0-3.0"", ""group"": ""daxby"", ""correct"": true, ""response"": ""d"", ""rt"": 4584, ""color"": ""yellow"", ""trial_type"": ""robot""}"
A1F1OZ54G177D8:3SKEMFQBZ35UPX5IA35OLGNBPI48KQ,3,1525362948014,"{""time_elapsed"": 57857, ""trial_index"": 3, ""internal_node_id"": ""0.0-2.0-6.0"", ""group"": ""daxby"", ""correct"": false, ""response"": ""k"", ""rt"": 2088, ""color"": ""blue"", ""trial_type"": ""robot""}"
A1F1OZ54G177D8:3SKEMFQBZ35UPX5IA35OLGNBPI48KQ,4,1525362952566,"{""time_elapsed"": 62409, ""trial_index"": 4, ""internal_node_id"": ""0.0-2.0-2.0"", ""group"": ""daxby"", ""correct"": true, ""response"": ""d"", ""rt"": 550, ""color"": ""blue"", ""trial_type"": ""robot""}"
A1F1OZ54G177D8:3SKEMFQBZ35UPX5IA35OLGNBPI48KQ,5,1525362957311,"{""time_elapsed"": 67154, ""trial_index"": 5, ""internal_node_id"": ""0.0-2.0-0.0"", ""group"": ""kizik"", ""correct"": false, ""response"": ""d"", ""rt"": 741, ""color"": ""yellow"", ""trial_type"": ""robot""}"
A1F1OZ54G177D8:3SKEMFQBZ35UPX5IA35OLGNBPI48KQ,6,1525362962199,"{""time_elapsed"": 72042, ""trial_index"": 6, ""internal_node_id"": ""0.0-2.0-7.0"", ""group"": ""daxby"", ""correct"": false, ""response"": ""k"", ""rt"": 884, ""color"": ""yellow"", ""trial_type"": ""robot""}"
A1F1OZ54G177D8:3SKEMFQBZ35UPX5IA35OLGNBPI48KQ,7,1525362967143,"{""time_elapsed"": 76986, ""trial_index"": 7, ""internal_node_id"": ""0.0-2.0-1.0"", ""group"": ""daxby"", ""correct"": true, ""response"": ""d"", ""rt"": 942, ""color"": ""blue"", ""trial_type"": ""robot""}"
A1F1OZ54G177D8:3SKEMFQBZ35UPX5IA35OLGNBPI48KQ,8,1525362971869,"{""time_elapsed"": 81712, ""trial_index"": 8, ""internal_node_id"": ""0.0-2.0-5.0"", ""group"": ""kizik"", ""correct"": false, ""response"": ""d"", ""rt"": 723, ""color"": ""blue"", ""trial_type"": ""robot""}"
A1F1OZ54G177D8:3SKEMFQBZ35UPX5IA35OLGNBPI48KQ,9,1525362977382,"{""time_elapsed"": 87225, ""trial_index"": 9, ""internal_node_id"": ""0.0-2.0-8.0"", ""group"": ""daxby"", ""correct"": true, ""response"": ""d"", ""rt"": 1509, ""color"": ""blue"", ""trial_type"": ""robot""}"
A1F1OZ54G177D8:3SKEMFQBZ35UPX5IA35OLGNBPI48KQ,10,1525362981965,"{""time_elapsed"": 91808, ""trial_index"": 10, ""internal_node_id"": ""0.0-2.0-4.0"", ""group"": ""daxby"", ""correct"": true, ""response"": ""d"", ""rt"": 579, ""color"": ""blue"", ""trial_type"": ""robot""}"
A1F1OZ54G177D8:3SKEMFQBZ35UPX5IA35OLGNBPI48KQ,11,1525362986725,"{""time_elapsed"": 96568, ""trial_index"": 11, ""internal_node_id"": ""0.0-3.0-5.0"", ""group"": ""daxby"", ""correct"": true, ""response"": ""d"", ""rt"": 756, ""color"": ""blue"", ""trial_type"": ""robot""}"
A1F1OZ54G177D8:3SKEMFQBZ35UPX5IA35OLGNBPI48KQ,12,1525362991325,"{""time_elapsed"": 101168, ""trial_index"": 12, ""internal_node_id"": ""0.0-3.0-8.0"", ""group"": ""kizik"", ""correct"": false, ""response"": ""d"", ""rt"": 597, ""color"": ""blue"", ""trial_type"": ""robot""}"
A1F1OZ54G177D8:3SKEMFQBZ35UPX5IA35OLGNBPI48KQ,13,1525362995819,"{""time_elapsed"": 105662, ""trial_index"": 13, ""internal_node_id"": ""0.0-3.0-4.0"", ""group"": ""kizik"", ""correct"": false, ""response"": ""d"", ""rt"": 490, ""color"": ""blue"", ""trial_type"": ""robot""}"
A1F1OZ54G177D8:3SKEMFQBZ35UPX5IA35OLGNBPI48KQ,14,1525363000739,"{""time_elapsed"": 110582, ""trial_index"": 14, ""internal_node_id"": ""0.0-3.0-6.0"", ""group"": ""kizik"", ""correct"": false, ""response"": ""d"", ""rt"": 916, ""color"": ""blue"", ""trial_type"": ""robot""}"
A1F1OZ54G177D8:3SKEMFQBZ35UPX5IA35OLGNBPI48KQ,15,1525363005203,"{""time_elapsed"": 115045, ""trial_index"": 15, ""internal_node_id"": ""0.0-3.0-7.0"", ""group"": ""daxby"", ""correct"": false, ""response"": ""k"", ""rt"": 453, ""color"": ""blue"", ""trial_type"": ""robot""}"
A1F1OZ54G177D8:3SKEMFQBZ35UPX5IA35OLGNBPI48KQ,16,1525363009841,"{""time_elapsed"": 119684, ""trial_index"": 16, ""internal_node_id"": ""0.0-3.0-1.0"", ""group"": ""daxby"", ""correct"": true, ""response"": ""d"", ""rt"": 635, ""color"": ""yellow"", ""trial_type"": ""robot""}"
A1F1OZ54G177D8:3SKEMFQBZ35UPX5IA35OLGNBPI48KQ,17,1525363014528,"{""time_elapsed"": 124371, ""trial_index"": 17, ""internal_node_id"": ""0.0-3.0-0.0"", ""group"": ""kizik"", ""correct"": false, ""response"": ""d"", ""rt"": 684, ""color"": ""yellow"", ""trial_type"": ""robot""}"
A1F1OZ54G177D8:3SKEMFQBZ35UPX5IA35OLGNBPI48KQ,18,1525363018999,"{""time_elapsed"": 128842, ""trial_index"": 18, ""internal_node_id"": ""0.0-3.0-2.0"", ""group"": ""daxby"", ""correct"": false, ""response"": ""k"", ""rt"": 469, ""color"": ""yellow"", ""trial_type"": ""robot""}"
A1F1OZ54G177D8:3SKEMFQBZ35UPX5IA35OLGNBPI48KQ,19,1525363023329,"{""time_elapsed"": 133172, ""trial_index"": 19, ""internal_node_id"": ""0.0-3.0-3.0"", ""group"": ""daxby"", ""correct"": true, ""response"": ""d"", ""rt"": 326, ""color"": ""blue"", ""trial_type"": ""robot""}"
A1F1OZ54G177D8:3SKEMFQBZ35UPX5IA35OLGNBPI48KQ,20,1525363030127,"{""time_elapsed"": 139970, ""trial_index"": 20, ""responses"": 20, ""internal_node_id"": ""0.0-4.0"", ""tag"": ""kizik"", ""trial_type"": ""slider""}"
A1F1OZ54G177D8:3SKEMFQBZ35UPX5IA35OLGNBPI48KQ,21,1525363034122,"{""time_elapsed"": 143965, ""trial_index"": 21, ""responses"": 20, ""internal_node_id"": ""0.0-5.0"", ""tag"": ""daxby"", ""trial_type"": ""slider""}"
A1F1OZ54G177D8:3SKEMFQBZ35UPX5IA35OLGNBPI48KQ,22,1525363036316,"{""time_elapsed"": 146159, ""trial_index"": 22, ""internal_node_id"": ""0.0-6.0"", ""stimulus"": [""<p>Thanks so much for participating in this research.</p>Your final bonus is $0.08""], ""button_pressed"": 0, ""rt"": 1193, ""trial_type"": ""button-response""}"
A3GEL5PWFIK05S:3FE7TXL1LIN5EL1O7RGK7BMH2O42Q9,0,1525362841558,"{""internal_node_id"": ""0.0-0.0"", ""trial_index"": 0, ""time_elapsed"": 25071, ""view_history"": ""[{\""page_index\"":0,\""viewing_time\"":8003},{\""page_index\"":1,\""viewing_time\"":10536},{\""page_index\"":2,\""viewing_time\"":6532}]"", ""rt"": 25071, ""trial_type"": ""instructions""}"
A3GEL5PWFIK05S:3FE7TXL1LIN5EL1O7RGK7BMH2O42Q9,1,1525362862709,"{""time_elapsed"": 46223, ""trial_index"": 1, ""responses"": {""Q0"": ""6489151""}, ""internal_node_id"": ""0.0-1.0"", ""rt"": 20144, ""trial_type"": ""survey-text-force""}"
A3GEL5PWFIK05S:3FE7TXL1LIN5EL1O7RGK7BMH2O42Q9,2,1525362866926,"{""time_elapsed"": 50440, ""trial_index"": 2, ""internal_node_id"": ""0.0-2.0"", ""stimulus"": ""\n\t\t\t\t<h1>Instructions Complete</h1>\n\n\t\t\t\tYou're now ready to begin seeing robots and predicting where they are from.\n\t\t\t\tYou will see 18 robots in total.\n\t\t\t\tRemember, you earn one cent for each correct prediction. Good luck!\n\t\t\t"", ""button_pressed"": 0, ""rt"": 3214, ""trial_type"": ""button-response""}"
A3GEL5PWFIK05S:3FE7TXL1LIN5EL1O7RGK7BMH2O42Q9,3,1525362873656,"{""time_elapsed"": 57170, ""trial_index"": 3, ""internal_node_id"": ""0.0-3.0-3.0"", ""group"": ""daxby"", ""correct"": true, ""response"": ""d"", ""rt"": 2727, ""color"": ""blue"", ""trial_type"": ""robot""}"
A3GEL5PWFIK05S:3FE7TXL1LIN5EL1O7RGK7BMH2O42Q9,4,1525362879167,"{""time_elapsed"": 62681, ""trial_index"": 4, ""internal_node_id"": ""0.0-3.0-6.0"", ""group"": ""daxby"", ""correct"": true, ""response"": ""d"", ""rt"": 1508, ""color"": ""yellow"", ""trial_type"": ""robot""}"
A3GEL5PWFIK05S:3FE7TXL1LIN5EL1O7RGK7BMH2O42Q9,5,1525362884190,"{""time_elapsed"": 67704, ""trial_index"": 5, ""internal_node_id"": ""0.0-3.0-7.0"", ""group"": ""daxby"", ""correct"": true, ""response"": ""d"", ""rt"": 1021, ""color"": ""blue"", ""trial_type"": ""robot""}"
A3GEL5PWFIK05S:3FE7TXL1LIN5EL1O7RGK7BMH2O42Q9,6,1525362889245,"{""time_elapsed"": 72759, ""trial_index"": 6, ""internal_node_id"": ""0.0-3.0-5.0"", ""group"": ""kizik"", ""correct"": false, ""response"": ""d"", ""rt"": 1053, ""color"": ""blue"", ""trial_type"": ""robot""}"
A3GEL5PWFIK05S:3FE7TXL1LIN5EL1O7RGK7BMH2O42Q9,7,1525362894122,"{""time_elapsed"": 77636, ""trial_index"": 7, ""internal_node_id"": ""0.0-3.0-4.0"", ""group"": ""daxby"", ""correct"": true, ""response"": ""d"", ""rt"": 873, ""color"": ""blue"", ""trial_type"": ""robot""}"
A3GEL5PWFIK05S:3FE7TXL1LIN5EL1O7RGK7BMH2O42Q9,8,1525362899596,"{""time_elapsed"": 83110, ""trial_index"": 8, ""internal_node_id"": ""0.0-3.0-0.0"", ""group"": ""kizik"", ""correct"": false, ""response"": ""d"", ""rt"": 1471, ""color"": ""yellow"", ""trial_type"": ""robot""}"
A3GEL5PWFIK05S:3FE7TXL1LIN5EL1O7RGK7BMH2O42Q9,9,1525362905012,"{""time_elapsed"": 88526, ""trial_index"": 9, ""internal_node_id"": ""0.0-3.0-1.0"", ""group"": ""daxby"", ""correct"": true, ""response"": ""d"", ""rt"": 1414, ""color"": ""yellow"", ""trial_type"": ""robot""}"
A3GEL5PWFIK05S:3FE7TXL1LIN5EL1O7RGK7BMH2O42Q9,10,1525362909449,"{""time_elapsed"": 92963, ""trial_index"": 10, ""internal_node_id"": ""0.0-3.0-2.0"", ""group"": ""kizik"", ""correct"": false, ""response"": ""d"", ""rt"": 433, ""color"": ""blue"", ""trial_type"": ""robot""}"
A3GEL5PWFIK05S:3FE7TXL1LIN5EL1O7RGK7BMH2O42Q9,11,1525362915529,"{""time_elapsed"": 99043, ""trial_index"": 11, ""internal_node_id"": ""0.0-3.0-8.0"", ""group"": ""daxby"", ""correct"": true, ""response"": ""d"", ""rt"": 2078, ""color"": ""blue"", ""trial_type"": ""robot""}"
A3GEL5PWFIK05S:3FE7TXL1LIN5EL1O7RGK7BMH2O42Q9,12,1525362920879,"{""time_elapsed"": 104393, ""trial_index"": 12, ""responses"": {""Q0"": ""6489151""}, ""internal_node_id"": ""0.0-4.0"", ""rt"": 4348, ""trial_type"": ""survey-text-force""}"
A3GEL5PWFIK05S:3FE7TXL1LIN5EL1O7RGK7BMH2O42Q9,13,1525362924327,"{""time_elapsed"": 107841, ""trial_index"": 13, ""internal_node_id"": ""0.0-5.0"", ""stimulus"": ""\n\t\t\t\t<strong style='color: green'>Correct!</strong><br>\n\t\t\t\tThe number was <b>6489151</b>.<br>\n\t\t\t\tPlease keep the number in memory because we will ask you to recall it again.\n\t\t\t"", ""button_pressed"": 0, ""rt"": 2447, ""trial_type"": ""button-response""}"
A3GEL5PWFIK05S:3FE7TXL1LIN5EL1O7RGK7BMH2O42Q9,14,1525362930372,"{""time_elapsed"": 113885, ""trial_index"": 14, ""internal_node_id"": ""0.0-6.0-1.0"", ""group"": ""kizik"", ""correct"": false, ""response"": ""d"", ""rt"": 2041, ""color"": ""yellow"", ""trial_type"": ""robot""}"
A3GEL5PWFIK05S:3FE7TXL1LIN5EL1O7RGK7BMH2O42Q9,15,1525362935746,"{""time_elapsed"": 119260, ""trial_index"": 15, ""internal_node_id"": ""0.0-6.0-7.0"", ""group"": ""daxby"", ""correct"": true, ""response"": ""d"", ""rt"": 1372, ""color"": ""blue"", ""trial_type"": ""robot""}"
A3GEL5PWFIK05S:3FE7TXL1LIN5EL1O7RGK7BMH2O42Q9,16,1525362943274,"{""time_elapsed"": 126788, ""trial_index"": 16, ""internal_node_id"": ""0.0-6.0-6.0"", ""group"": ""daxby"", ""correct"": true, ""response"": ""d"", ""rt"": 3526, ""color"": ""yellow"", ""trial_type"": ""robot""}"
A3GEL5PWFIK05S:3FE7TXL1LIN5EL1O7RGK7BMH2O42Q9,17,1525362948124,"{""time_elapsed"": 131638, ""trial_index"": 17, ""internal_node_id"": ""0.0-6.0-0.0"", ""group"": ""daxby"", ""correct"": true, ""response"": ""d"", ""rt"": 848, ""color"": ""blue"", ""trial_type"": ""robot""}"
A3GEL5PWFIK05S:3FE7TXL1LIN5EL1O7RGK7BMH2O42Q9,18,1525362952726,"{""time_elapsed"": 136240, ""trial_index"": 18, ""internal_node_id"": ""0.0-6.0-3.0"", ""group"": ""daxby"", ""correct"": true, ""response"": ""d"", ""rt"": 598, ""color"": ""blue"", ""trial_type"": ""robot""}"
A3GEL5PWFIK05S:3FE7TXL1LIN5EL1O7RGK7BMH2O42Q9,19,1525362957373,"{""time_elapsed"": 140887, ""trial_index"": 19, ""internal_node_id"": ""0.0-6.0-5.0"", ""group"": ""daxby"", ""correct"": true, ""response"": ""d"", ""rt"": 645, ""color"": ""yellow"", ""trial_type"": ""robot""}"
A3GEL5PWFIK05S:3FE7TXL1LIN5EL1O7RGK7BMH2O42Q9,20,1525362962200,"{""time_elapsed"": 145714, ""trial_index"": 20, ""internal_node_id"": ""0.0-6.0-4.0"", ""group"": ""kizik"", ""correct"": false, ""response"": ""d"", ""rt"": 825, ""color"": ""blue"", ""trial_type"": ""robot""}"
A3GEL5PWFIK05S:3FE7TXL1LIN5EL1O7RGK7BMH2O42Q9,21,1525362968430,"{""time_elapsed"": 151944, ""trial_index"": 21, ""internal_node_id"": ""0.0-6.0-8.0"", ""group"": ""daxby"", ""correct"": true, ""response"": ""d"", ""rt"": 2227, ""color"": ""blue"", ""trial_type"": ""robot""}"
A3GEL5PWFIK05S:3FE7TXL1LIN5EL1O7RGK7BMH2O42Q9,22,1525362973462,"{""time_elapsed"": 156976, ""trial_index"": 22, ""internal_node_id"": ""0.0-6.0-2.0"", ""group"": ""kizik"", ""correct"": false, ""response"": ""d"", ""rt"": 1029, ""color"": ""blue"", ""trial_type"": ""robot""}"
A3GEL5PWFIK05S:3FE7TXL1LIN5EL1O7RGK7BMH2O42Q9,23,1525362978842,"{""time_elapsed"": 162356, ""trial_index"": 23, ""responses"": {""Q0"": ""6489151""}, ""internal_node_id"": ""0.0-7.0"", ""rt"": 4375, ""trial_type"": ""survey-text-force""}"
A3GEL5PWFIK05S:3FE7TXL1LIN5EL1O7RGK7BMH2O42Q9,24,1525362992933,"{""time_elapsed"": 176446, ""trial_index"": 24, ""responses"": 50, ""internal_node_id"": ""0.0-8.0"", ""tag"": ""kizik"", ""trial_type"": ""slider""}"
A3GEL5PWFIK05S:3FE7TXL1LIN5EL1O7RGK7BMH2O42Q9,25,1525362996977,"{""time_elapsed"": 180491, ""trial_index"": 25, ""responses"": 28, ""internal_node_id"": ""0.0-9.0"", ""tag"": ""daxby"", ""trial_type"": ""slider""}"
A3GEL5PWFIK05S:3FE7TXL1LIN5EL1O7RGK7BMH2O42Q9,26,1525362999369,"{""time_elapsed"": 182883, ""trial_index"": 26, ""internal_node_id"": ""0.0-10.0"", ""stimulus"": [""<p>Thanks so much for participating in this research.</p>Your final bonus is $0.12""], ""button_pressed"": 0, ""rt"": 1391, ""trial_type"": ""button-response""}"
A37S96RT1P1IT2:3907X2AHF05KE9097E1V76W7XSI2PI,0,1525362863901,"{""internal_node_id"": ""0.0-0.0"", ""trial_index"": 0, ""time_elapsed"": 27681, ""view_history"": ""[{\""page_index\"":0,\""viewing_time\"":8849},{\""page_index\"":1,\""viewing_time\"":7943},{\""page_index\"":2,\""viewing_time\"":10889}]"", ""rt"": 27681, ""trial_type"": ""instructions""}"
A37S96RT1P1IT2:3907X2AHF05KE9097E1V76W7XSI2PI,1,1525362889246,"{""time_elapsed"": 53027, ""trial_index"": 1, ""responses"": {""Q0"": ""4923816""}, ""internal_node_id"": ""0.0-1.0"", ""rt"": 24333, ""trial_type"": ""survey-text-force""}"
A37S96RT1P1IT2:3907X2AHF05KE9097E1V76W7XSI2PI,2,1525362895101,"{""time_elapsed"": 58882, ""trial_index"": 2, ""internal_node_id"": ""0.0-2.0"", ""stimulus"": ""\n\t\t\t\t<h1>Instructions Complete</h1>\n\n\t\t\t\tYou're now ready to begin seeing robots and predicting where they are from.\n\t\t\t\tYou will see 18 robots in total.\n\t\t\t\tRemember, you earn one cent for each correct prediction. Good luck!\n\t\t\t"", ""button_pressed"": 0, ""rt"": 4853, ""trial_type"": ""button-response""}"
A37S96RT1P1IT2:3907X2AHF05KE9097E1V76W7XSI2PI,3,1525362902452,"{""time_elapsed"": 66233, ""trial_index"": 3, ""internal_node_id"": ""0.0-3.0-8.0"", ""group"": ""kizik"", ""correct"": true, ""response"": ""k"", ""rt"": 3346, ""color"": ""blue"", ""trial_type"": ""robot""}"
A37S96RT1P1IT2:3907X2AHF05KE9097E1V76W7XSI2PI,4,1525362907014,"{""time_elapsed"": 70795, ""trial_index"": 4, ""internal_node_id"": ""0.0-3.0-2.0"", ""group"": ""daxby"", ""correct"": false, ""response"": ""k"", ""rt"": 558, ""color"": ""blue"", ""trial_type"": ""robot""}"
A37S96RT1P1IT2:3907X2AHF05KE9097E1V76W7XSI2PI,5,1525362912433,"{""time_elapsed"": 76214, ""trial_index"": 5, ""internal_node_id"": ""0.0-3.0-1.0"", ""group"": ""kizik"", ""correct"": false, ""response"": ""d"", ""rt"": 1417, ""color"": ""blue"", ""trial_type"": ""robot""}"
A37S96RT1P1IT2:3907X2AHF05KE9097E1V76W7XSI2PI,6,1525362918708,"{""time_elapsed"": 82489, ""trial_index"": 6, ""internal_node_id"": ""0.0-3.0-0.0"", ""group"": ""daxby"", ""correct"": true, ""response"": ""d"", ""rt"": 2271, ""color"": ""blue"", ""trial_type"": ""robot""}"
A37S96RT1P1IT2:3907X2AHF05KE9097E1V76W7XSI2PI,7,1525362923391,"{""time_elapsed"": 87172, ""trial_index"": 7, ""internal_node_id"": ""0.0-3.0-3.0"", ""group"": ""daxby"", ""correct"": true, ""response"": ""d"", ""rt"": 678, ""color"": ""blue"", ""trial_type"": ""robot""}"
A37S96RT1P1IT2:3907X2AHF05KE9097E1V76W7XSI2PI,8,1525362928381,"{""time_elapsed"": 92161, ""trial_index"": 8, ""internal_node_id"": ""0.0-3.0-4.0"", ""group"": ""daxby"", ""correct"": true, ""response"": ""d"", ""rt"": 989, ""color"": ""blue"", ""trial_type"": ""robot""}"
A37S96RT1P1IT2:3907X2AHF05KE9097E1V76W7XSI2PI,9,1525362933828,"{""time_elapsed"": 97609, ""trial_index"": 9, ""internal_node_id"": ""0.0-3.0-7.0"", ""group"": ""daxby"", ""correct"": false, ""response"": ""k"", ""rt"": 1445, ""color"": ""yellow"", ""trial_type"": ""robot""}"
A37S96RT1P1IT2:3907X2AHF05KE9097E1V76W7XSI2PI,10,1525362938289,"{""time_elapsed"": 102070, ""trial_index"": 10, ""internal_node_id"": ""0.0-3.0-5.0"", ""group"": ""daxby"", ""correct"": true, ""response"": ""d"", ""rt"": 459, ""color"": ""yellow"", ""trial_type"": ""robot""}"
A37S96RT1P1IT2:3907X2AHF05KE9097E1V76W7XSI2PI,11,1525362943726,"{""time_elapsed"": 107507, ""trial_index"": 11, ""internal_node_id"": ""0.0-3.0-6.0"", ""group"": ""daxby"", ""correct"": false, ""response"": ""k"", ""rt"": 1434, ""color"": ""blue"", ""trial_type"": ""robot""}"
A37S96RT1P1IT2:3907X2AHF05KE9097E1V76W7XSI2PI,12,1525362963342,"{""time_elapsed"": 127123, ""trial_index"": 12, ""responses"": {""Q0"": ""4923816""}, ""internal_node_id"": ""0.0-4.0"", ""rt"": 18612, ""trial_type"": ""survey-text-force""}"
A37S96RT1P1IT2:3907X2AHF05KE9097E1V76W7XSI2PI,13,1525362967869,"{""time_elapsed"": 131650, ""trial_index"": 13, ""internal_node_id"": ""0.0-5.0"", ""stimulus"": ""\n\t\t\t\t<strong style='color: green'>Correct!</strong><br>\n\t\t\t\tThe number was <b>4923816</b>.<br>\n\t\t\t\tPlease keep the number in memory because we will ask you to recall it again.\n\t\t\t"", ""button_pressed"": 0, ""rt"": 3526, ""trial_type"": ""button-response""}"
A37S96RT1P1IT2:3907X2AHF05KE9097E1V76W7XSI2PI,14,1525362973555,"{""time_elapsed"": 137336, ""trial_index"": 14, ""internal_node_id"": ""0.0-6.0-6.0"", ""group"": ""daxby"", ""correct"": true, ""response"": ""d"", ""rt"": 1683, ""color"": ""yellow"", ""trial_type"": ""robot""}"
A37S96RT1P1IT2:3907X2AHF05KE9097E1V76W7XSI2PI,15,1525362978049,"{""time_elapsed"": 141829, ""trial_index"": 15, ""internal_node_id"": ""0.0-6.0-7.0"", ""group"": ""kizik"", ""correct"": false, ""response"": ""d"", ""rt"": 491, ""color"": ""blue"", ""trial_type"": ""robot""}"
A37S96RT1P1IT2:3907X2AHF05KE9097E1V76W7XSI2PI,16,1525362982589,"{""time_elapsed"": 146370, ""trial_index"": 16, ""internal_node_id"": ""0.0-6.0-5.0"", ""group"": ""kizik"", ""correct"": false, ""response"": ""d"", ""rt"": 540, ""color"": ""yellow"", ""trial_type"": ""robot""}"
A37S96RT1P1IT2:3907X2AHF05KE9097E1V76W7XSI2PI,17,1525362987129,"{""time_elapsed"": 150910, ""trial_index"": 17, ""internal_node_id"": ""0.0-6.0-0.0"", ""group"": ""daxby"", ""correct"": true, ""response"": ""d"", ""rt"": 537, ""color"": ""blue"", ""trial_type"": ""robot""}"
A37S96RT1P1IT2:3907X2AHF05KE9097E1V76W7XSI2PI,18,1525362991780,"{""time_elapsed"": 155561, ""trial_index"": 18, ""internal_node_id"": ""0.0-6.0-4.0"", ""group"": ""daxby"", ""correct"": true, ""response"": ""d"", ""rt"": 649, ""color"": ""yellow"", ""trial_type"": ""robot""}"
A37S96RT1P1IT2:3907X2AHF05KE9097E1V76W7XSI2PI,19,1525362996438,"{""time_elapsed"": 160219, ""trial_index"": 19, ""internal_node_id"": ""0.0-6.0-3.0"", ""group"": ""kizik"", ""correct"": false, ""response"": ""d"", ""rt"": 656, ""color"": ""yellow"", ""trial_type"": ""robot""}"
A37S96RT1P1IT2:3907X2AHF05KE9097E1V76W7XSI2PI,20,1525363000894,"{""time_elapsed"": 164675, ""trial_index"": 20, ""internal_node_id"": ""0.0-6.0-8.0"", ""group"": ""daxby"", ""correct"": false, ""response"": ""k"", ""rt"": 454, ""color"": ""blue"", ""trial_type"": ""robot""}"
A37S96RT1P1IT2:3907X2AHF05KE9097E1V76W7XSI2PI,21,1525363005206,"{""time_elapsed"": 168987, ""trial_index"": 21, ""internal_node_id"": ""0.0-6.0-2.0"", ""group"": ""daxby"", ""correct"": true, ""response"": ""d"", ""rt"": 309, ""color"": ""blue"", ""trial_type"": ""robot""}"
A37S96RT1P1IT2:3907X2AHF05KE9097E1V76W7XSI2PI,22,1525363009732,"{""time_elapsed"": 173513, ""trial_index"": 22, ""internal_node_id"": ""0.0-6.0-1.0"", ""group"": ""kizik"", ""correct"": false, ""response"": ""d"", ""rt"": 523, ""color"": ""blue"", ""trial_type"": ""robot""}"
A37S96RT1P1IT2:3907X2AHF05KE9097E1V76W7XSI2PI,23,1525363016206,"{""time_elapsed"": 179987, ""trial_index"": 23, ""responses"": {""Q0"": ""4923816""}, ""internal_node_id"": ""0.0-7.0"", ""rt"": 5470, ""trial_type"": ""survey-text-force""}"
A37S96RT1P1IT2:3907X2AHF05KE9097E1V76W7XSI2PI,24,1525363030775,"{""time_elapsed"": 194556, ""trial_index"": 24, ""responses"": 6, ""internal_node_id"": ""0.0-8.0"", ""tag"": ""kizik"", ""trial_type"": ""slider""}"
A37S96RT1P1IT2:3907X2AHF05KE9097E1V76W7XSI2PI,25,1525363037613,"{""time_elapsed"": 201394, ""trial_index"": 25, ""responses"": 3, ""internal_node_id"": ""0.0-9.0"", ""tag"": ""daxby"", ""trial_type"": ""slider""}"
A37S96RT1P1IT2:3907X2AHF05KE9097E1V76W7XSI2PI,26,1525363040133,"{""time_elapsed"": 203914, ""trial_index"": 26, ""internal_node_id"": ""0.0-10.0"", ""stimulus"": [""<p>Thanks so much for participating in this research.</p>Your final bonus is $0.09""], ""button_pressed"": 0, ""rt"": 1517, ""trial_type"": ""button-response""}"
ABMX8XUNPR3LP:39O5D9O87TSQ52NO69TU6G2S4N33CG,0,1525362886628,"{""internal_node_id"": ""0.0-0.0"", ""trial_index"": 0, ""time_elapsed"": 24345, ""view_history"": ""[{\""page_index\"":0,\""viewing_time\"":9344},{\""page_index\"":1,\""viewing_time\"":8889},{\""page_index\"":2,\""viewing_time\"":6110}]"", ""rt"": 24344, ""trial_type"": ""instructions""}"
ABMX8XUNPR3LP:39O5D9O87TSQ52NO69TU6G2S4N33CG,1,1525362899571,"{""time_elapsed"": 37287, ""trial_index"": 1, ""responses"": {""Q0"": ""5874092""}, ""internal_node_id"": ""0.0-1.0"", ""rt"": 11917, ""trial_type"": ""survey-text-force""}"
ABMX8XUNPR3LP:39O5D9O87TSQ52NO69TU6G2S4N33CG,2,1525362903226,"{""time_elapsed"": 40943, ""trial_index"": 2, ""internal_node_id"": ""0.0-2.0"", ""stimulus"": ""\n\t\t\t\t<h1>Instructions Complete</h1>\n\n\t\t\t\tYou're now ready to begin seeing robots and predicting where they are from.\n\t\t\t\tYou will see 18 robots in total.\n\t\t\t\tRemember, you earn one cent for each correct prediction. Good luck!\n\t\t\t"", ""button_pressed"": 0, ""rt"": 2652, ""trial_type"": ""button-response""}"
ABMX8XUNPR3LP:39O5D9O87TSQ52NO69TU6G2S4N33CG,3,1525362910356,"{""time_elapsed"": 48073, ""trial_index"": 3, ""internal_node_id"": ""0.0-3.0-2.0"", ""group"": ""daxby"", ""correct"": true, ""response"": ""d"", ""rt"": 3123, ""color"": ""yellow"", ""trial_type"": ""robot""}"
ABMX8XUNPR3LP:39O5D9O87TSQ52NO69TU6G2S4N33CG,4,1525362915589,"{""time_elapsed"": 53306, ""trial_index"": 4, ""internal_node_id"": ""0.0-3.0-8.0"", ""group"": ""daxby"", ""correct"": true, ""response"": ""d"", ""rt"": 1227, ""color"": ""blue"", ""trial_type"": ""robot""}"
ABMX8XUNPR3LP:39O5D9O87TSQ52NO69TU6G2S4N33CG,5,1525362920538,"{""time_elapsed"": 58255, ""trial_index"": 5, ""internal_node_id"": ""0.0-3.0-5.0"", ""group"": ""daxby"", ""correct"": true, ""response"": ""d"", ""rt"": 947, ""color"": ""blue"", ""trial_type"": ""robot""}"
ABMX8XUNPR3LP:39O5D9O87TSQ52NO69TU6G2S4N33CG,6,1525362925467,"{""time_elapsed"": 63184, ""trial_index"": 6, ""internal_node_id"": ""0.0-3.0-3.0"", ""group"": ""daxby"", ""correct"": true, ""response"": ""d"", ""rt"": 924, ""color"": ""blue"", ""trial_type"": ""robot""}"
ABMX8XUNPR3LP:39O5D9O87TSQ52NO69TU6G2S4N33CG,7,1525362930613,"{""time_elapsed"": 68330, ""trial_index"": 7, ""internal_node_id"": ""0.0-3.0-7.0"", ""group"": ""kizik"", ""correct"": false, ""response"": ""d"", ""rt"": 1143, ""color"": ""blue"", ""trial_type"": ""robot""}"
ABMX8XUNPR3LP:39O5D9O87TSQ52NO69TU6G2S4N33CG,8,1525362935508,"{""time_elapsed"": 73225, ""trial_index"": 8, ""internal_node_id"": ""0.0-3.0-1.0"", ""group"": ""daxby"", ""correct"": true, ""response"": ""d"", ""rt"": 891, ""color"": ""blue"", ""trial_type"": ""robot""}"
ABMX8XUNPR3LP:39O5D9O87TSQ52NO69TU6G2S4N33CG,9,1525362940371,"{""time_elapsed"": 78088, ""trial_index"": 9, ""internal_node_id"": ""0.0-3.0-0.0"", ""group"": ""daxby"", ""correct"": true, ""response"": ""d"", ""rt"": 859, ""color"": ""blue"", ""trial_type"": ""robot""}"
ABMX8XUNPR3LP:39O5D9O87TSQ52NO69TU6G2S4N33CG,10,1525362945419,"{""time_elapsed"": 83136, ""trial_index"": 10, ""internal_node_id"": ""0.0-3.0-4.0"", ""group"": ""daxby"", ""correct"": true, ""response"": ""d"", ""rt"": 1046, ""color"": ""blue"", ""trial_type"": ""robot""}"
ABMX8XUNPR3LP:39O5D9O87TSQ52NO69TU6G2S4N33CG,11,1525362950341,"{""time_elapsed"": 88058, ""trial_index"": 11, ""internal_node_id"": ""0.0-3.0-6.0"", ""group"": ""kizik"", ""correct"": false, ""response"": ""d"", ""rt"": 918, ""color"": ""blue"", ""trial_type"": ""robot""}"
ABMX8XUNPR3LP:39O5D9O87TSQ52NO69TU6G2S4N33CG,12,1525362958912,"{""time_elapsed"": 96629, ""trial_index"": 12, ""responses"": {""Q0"": ""5874092""}, ""internal_node_id"": ""0.0-4.0"", ""rt"": 7568, ""trial_type"": ""survey-text-force""}"
ABMX8XUNPR3LP:39O5D9O87TSQ52NO69TU6G2S4N33CG,13,1525362961752,"{""time_elapsed"": 99468, ""trial_index"": 13, ""internal_node_id"": ""0.0-5.0"", ""stimulus"": ""\n\t\t\t\t<strong style='color: green'>Correct!</strong><br>\n\t\t\t\tThe number was <b>5874092</b>.<br>\n\t\t\t\tPlease keep the number in memory because we will ask you to recall it again.\n\t\t\t"", ""button_pressed"": 0, ""rt"": 1837, ""trial_type"": ""button-response""}"
ABMX8XUNPR3LP:39O5D9O87TSQ52NO69TU6G2S4N33CG,14,1525362966766,"{""time_elapsed"": 104482, ""trial_index"": 14, ""internal_node_id"": ""0.0-6.0-6.0"", ""group"": ""kizik"", ""correct"": false, ""response"": ""d"", ""rt"": 1009, ""color"": ""blue"", ""trial_type"": ""robot""}"
ABMX8XUNPR3LP:39O5D9O87TSQ52NO69TU6G2S4N33CG,15,1525362971132,"{""time_elapsed"": 108849, ""trial_index"": 15, ""internal_node_id"": ""0.0-6.0-5.0"", ""group"": ""kizik"", ""correct"": false, ""response"": ""d"", ""rt"": 362, ""color"": ""blue"", ""trial_type"": ""robot""}"
ABMX8XUNPR3LP:39O5D9O87TSQ52NO69TU6G2S4N33CG,16,1525362976389,"{""time_elapsed"": 114106, ""trial_index"": 16, ""internal_node_id"": ""0.0-6.0-7.0"", ""group"": ""kizik"", ""correct"": false, ""response"": ""d"", ""rt"": 1253, ""color"": ""yellow"", ""trial_type"": ""robot""}"
ABMX8XUNPR3LP:39O5D9O87TSQ52NO69TU6G2S4N33CG,17,1525362980803,"{""time_elapsed"": 118520, ""trial_index"": 17, ""internal_node_id"": ""0.0-6.0-0.0"", ""group"": ""daxby"", ""correct"": true, ""response"": ""d"", ""rt"": 407, ""color"": ""blue"", ""trial_type"": ""robot""}"
ABMX8XUNPR3LP:39O5D9O87TSQ52NO69TU6G2S4N33CG,18,1525362985629,"{""time_elapsed"": 123345, ""trial_index"": 18, ""internal_node_id"": ""0.0-6.0-4.0"", ""group"": ""daxby"", ""correct"": true, ""response"": ""d"", ""rt"": 819, ""color"": ""yellow"", ""trial_type"": ""robot""}"
ABMX8XUNPR3LP:39O5D9O87TSQ52NO69TU6G2S4N33CG,19,1525362990581,"{""time_elapsed"": 128298, ""trial_index"": 19, ""internal_node_id"": ""0.0-6.0-8.0"", ""group"": ""daxby"", ""correct"": true, ""response"": ""d"", ""rt"": 949, ""color"": ""blue"", ""trial_type"": ""robot""}"
ABMX8XUNPR3LP:39O5D9O87TSQ52NO69TU6G2S4N33CG,20,1525362995012,"{""time_elapsed"": 132729, ""trial_index"": 20, ""internal_node_id"": ""0.0-6.0-3.0"", ""group"": ""daxby"", ""correct"": true, ""response"": ""d"", ""rt"": 428, ""color"": ""yellow"", ""trial_type"": ""robot""}"
ABMX8XUNPR3LP:39O5D9O87TSQ52NO69TU6G2S4N33CG,21,1525362999378,"{""time_elapsed"": 137095, ""trial_index"": 21, ""internal_node_id"": ""0.0-6.0-1.0"", ""group"": ""daxby"", ""correct"": true, ""response"": ""d"", ""rt"": 362, ""color"": ""yellow"", ""trial_type"": ""robot""}"
ABMX8XUNPR3LP:39O5D9O87TSQ52NO69TU6G2S4N33CG,22,1525363003778,"{""time_elapsed"": 141495, ""trial_index"": 22, ""internal_node_id"": ""0.0-6.0-2.0"", ""group"": ""kizik"", ""correct"": false, ""response"": ""d"", ""rt"": 395, ""color"": ""yellow"", ""trial_type"": ""robot""}"
ABMX8XUNPR3LP:39O5D9O87TSQ52NO69TU6G2S4N33CG,23,1525363011093,"{""time_elapsed"": 148810, ""trial_index"": 23, ""responses"": {""Q0"": ""5874092""}, ""internal_node_id"": ""0.0-7.0"", ""rt"": 6310, ""trial_type"": ""survey-text-force""}"
ABMX8XUNPR3LP:39O5D9O87TSQ52NO69TU6G2S4N33CG,24,1525363021476,"{""time_elapsed"": 159193, ""trial_index"": 24, ""responses"": 59, ""internal_node_id"": ""0.0-8.0"", ""tag"": ""kizik"", ""trial_type"": ""slider""}"
ABMX8XUNPR3LP:39O5D9O87TSQ52NO69TU6G2S4N33CG,25,1525363026219,"{""time_elapsed"": 163936, ""trial_index"": 25, ""responses"": 32, ""internal_node_id"": ""0.0-9.0"", ""tag"": ""daxby"", ""trial_type"": ""slider""}"
ABMX8XUNPR3LP:39O5D9O87TSQ52NO69TU6G2S4N33CG,26,1525363028833,"{""time_elapsed"": 166550, ""trial_index"": 26, ""internal_node_id"": ""0.0-10.0"", ""stimulus"": [""<p>Thanks so much for participating in this research.</p>Your final bonus is $0.12""], ""button_pressed"": 0, ""rt"": 1612, ""trial_type"": ""button-response""}"
A1ZD8RU6YB0VEU:3BV8HQ2ZZW1196D85XV17OOOEBK6AN,0,1525362955775,"{""internal_node_id"": ""0.0-0.0"", ""trial_index"": 0, ""time_elapsed"": 68016, ""view_history"": ""[{\""page_index\"":0,\""viewing_time\"":18532},{\""page_index\"":1,\""viewing_time\"":40184},{\""page_index\"":2,\""viewing_time\"":9299}]"", ""rt"": 68015, ""trial_type"": ""instructions""}"
A1ZD8RU6YB0VEU:3BV8HQ2ZZW1196D85XV17OOOEBK6AN,1,1525362975754,"{""time_elapsed"": 87995, ""trial_index"": 1, ""responses"": {""Q0"": ""7099211""}, ""internal_node_id"": ""0.0-1.0"", ""rt"": 18971, ""trial_type"": ""survey-text-force""}"
A1ZD8RU6YB0VEU:3BV8HQ2ZZW1196D85XV17OOOEBK6AN,2,1525362982784,"{""time_elapsed"": 95024, ""trial_index"": 2, ""internal_node_id"": ""0.0-2.0"", ""stimulus"": ""\n\t\t\t\t<h1>Instructions Complete</h1>\n\n\t\t\t\tYou're now ready to begin seeing robots and predicting where they are from.\n\t\t\t\tYou will see 18 robots in total.\n\t\t\t\tRemember, you earn one cent for each correct prediction. Good luck!\n\t\t\t"", ""button_pressed"": 0, ""rt"": 6028, ""trial_type"": ""button-response""}"
A1ZD8RU6YB0VEU:3BV8HQ2ZZW1196D85XV17OOOEBK6AN,3,1525362990764,"{""time_elapsed"": 103005, ""trial_index"": 3, ""internal_node_id"": ""0.0-3.0-2.0"", ""group"": ""daxby"", ""correct"": false, ""response"": ""k"", ""rt"": 3977, ""color"": ""blue"", ""trial_type"": ""robot""}"
A1ZD8RU6YB0VEU:3BV8HQ2ZZW1196D85XV17OOOEBK6AN,4,1525362994922,"{""time_elapsed"": 107163, ""trial_index"": 4, ""internal_node_id"": ""0.0-3.0-3.0"", ""group"": ""kizik"", ""correct"": false, ""response"": ""d"", ""rt"": 155, ""color"": ""blue"", ""trial_type"": ""robot""}"
A1ZD8RU6YB0VEU:3BV8HQ2ZZW1196D85XV17OOOEBK6AN,5,1525362999045,"{""time_elapsed"": 111286, ""trial_index"": 5, ""internal_node_id"": ""0.0-3.0-5.0"", ""group"": ""daxby"", ""correct"": true, ""response"": ""d"", ""rt"": 121, ""color"": ""blue"", ""trial_type"": ""robot""}"
A1ZD8RU6YB0VEU:3BV8HQ2ZZW1196D85XV17OOOEBK6AN,6,1525363003505,"{""time_elapsed"": 115746, ""trial_index"": 6, ""internal_node_id"": ""0.0-3.0-0.0"", ""group"": ""daxby"", ""correct"": true, ""response"": ""d"", ""rt"": 457, ""color"": ""yellow"", ""trial_type"": ""robot""}"
A1ZD8RU6YB0VEU:3BV8HQ2ZZW1196D85XV17OOOEBK6AN,7,1525363007682,"{""time_elapsed"": 119923, ""trial_index"": 7, ""internal_node_id"": ""0.0-3.0-1.0"", ""group"": ""kizik"", ""correct"": false, ""response"": ""d"", ""rt"": 175, ""color"": ""blue"", ""trial_type"": ""robot""}"
A1ZD8RU6YB0VEU:3BV8HQ2ZZW1196D85XV17OOOEBK6AN,8,1525363012261,"{""time_elapsed"": 124501, ""trial_index"": 8, ""internal_node_id"": ""0.0-3.0-7.0"", ""group"": ""kizik"", ""correct"": false, ""response"": ""d"", ""rt"": 574, ""color"": ""blue"", ""trial_type"": ""robot""}"
A1ZD8RU6YB0VEU:3BV8HQ2ZZW1196D85XV17OOOEBK6AN,9,1525363016798,"{""time_elapsed"": 129039, ""trial_index"": 9, ""internal_node_id"": ""0.0-3.0-6.0"", ""group"": ""kizik"", ""correct"": false, ""response"": ""d"", ""rt"": 534, ""color"": ""yellow"", ""trial_type"": ""robot""}"
A1ZD8RU6YB0VEU:3BV8HQ2ZZW1196D85XV17OOOEBK6AN,10,1525363021423,"{""time_elapsed"": 133664, ""trial_index"": 10, ""internal_node_id"": ""0.0-3.0-4.0"", ""group"": ""kizik"", ""correct"": false, ""response"": ""d"", ""rt"": 623, ""color"": ""yellow"", ""trial_type"": ""robot""}"
A1ZD8RU6YB0VEU:3BV8HQ2ZZW1196D85XV17OOOEBK6AN,11,1525363025797,"{""time_elapsed"": 138038, ""trial_index"": 11, ""internal_node_id"": ""0.0-3.0-8.0"", ""group"": ""daxby"", ""correct"": true, ""response"": ""d"", ""rt"": 371, ""color"": ""yellow"", ""trial_type"": ""robot""}"
A1ZD8RU6YB0VEU:3BV8HQ2ZZW1196D85XV17OOOEBK6AN,12,1525363037754,"{""time_elapsed"": 149995, ""trial_index"": 12, ""responses"": {""Q0"": ""7099211""}, ""internal_node_id"": ""0.0-4.0"", ""rt"": 10955, ""trial_type"": ""survey-text-force""}"
A1ZD8RU6YB0VEU:3BV8HQ2ZZW1196D85XV17OOOEBK6AN,13,1525363048795,"{""time_elapsed"": 161036, ""trial_index"": 13, ""internal_node_id"": ""0.0-5.0"", ""stimulus"": ""\n\t\t\t\t<strong style='color: green'>Correct!</strong><br>\n\t\t\t\tThe number was <b>7099211</b>.<br>\n\t\t\t\tPlease keep the number in memory because we will ask you to recall it again.\n\t\t\t"", ""button_pressed"": 0, ""rt"": 10036, ""trial_type"": ""button-response""}"
A1ZD8RU6YB0VEU:3BV8HQ2ZZW1196D85XV17OOOEBK6AN,14,1525363054981,"{""time_elapsed"": 167222, ""trial_index"": 14, ""internal_node_id"": ""0.0-6.0-7.0"", ""group"": ""daxby"", ""correct"": true, ""response"": ""d"", ""rt"": 2183, ""color"": ""blue"", ""trial_type"": ""robot""}"
A1ZD8RU6YB0VEU:3BV8HQ2ZZW1196D85XV17OOOEBK6AN,15,1525363059694,"{""time_elapsed"": 171935, ""trial_index"": 15, ""internal_node_id"": ""0.0-6.0-0.0"", ""group"": ""daxby"", ""correct"": true, ""response"": ""d"", ""rt"": 710, ""color"": ""blue"", ""trial_type"": ""robot""}"
A1ZD8RU6YB0VEU:3BV8HQ2ZZW1196D85XV17OOOEBK6AN,16,1525363064315,"{""time_elapsed"": 176556, ""trial_index"": 16, ""internal_node_id"": ""0.0-6.0-6.0"", ""group"": ""kizik"", ""correct"": false, ""response"": ""d"", ""rt"": 619, ""color"": ""blue"", ""trial_type"": ""robot""}"
A1ZD8RU6YB0VEU:3BV8HQ2ZZW1196D85XV17OOOEBK6AN,17,1525363068761,"{""time_elapsed"": 181002, ""trial_index"": 17, ""internal_node_id"": ""0.0-6.0-3.0"", ""group"": ""daxby"", ""correct"": false, ""response"": ""k"", ""rt"": 444, ""color"": ""blue"", ""trial_type"": ""robot""}"
A1ZD8RU6YB0VEU:3BV8HQ2ZZW1196D85XV17OOOEBK6AN,18,1525363073171,"{""time_elapsed"": 185412, ""trial_index"": 18, ""internal_node_id"": ""0.0-6.0-2.0"", ""group"": ""daxby"", ""correct"": true, ""response"": ""d"", ""rt"": 408, ""color"": ""yellow"", ""trial_type"": ""robot""}"
A1ZD8RU6YB0VEU:3BV8HQ2ZZW1196D85XV17OOOEBK6AN,19,1525363078109,"{""time_elapsed"": 190350, ""trial_index"": 19, ""internal_node_id"": ""0.0-6.0-4.0"", ""group"": ""daxby"", ""correct"": true, ""response"": ""d"", ""rt"": 934, ""color"": ""blue"", ""trial_type"": ""robot""}"
A1ZD8RU6YB0VEU:3BV8HQ2ZZW1196D85XV17OOOEBK6AN,20,1525363082683,"{""time_elapsed"": 194923, ""trial_index"": 20, ""internal_node_id"": ""0.0-6.0-1.0"", ""group"": ""daxby"", ""correct"": true, ""response"": ""d"", ""rt"": 571, ""color"": ""yellow"", ""trial_type"": ""robot""}"
A1ZD8RU6YB0VEU:3BV8HQ2ZZW1196D85XV17OOOEBK6AN,21,1525363087162,"{""time_elapsed"": 199403, ""trial_index"": 21, ""internal_node_id"": ""0.0-6.0-5.0"", ""group"": ""daxby"", ""correct"": false, ""response"": ""k"", ""rt"": 476, ""color"": ""blue"", ""trial_type"": ""robot""}"
A1ZD8RU6YB0VEU:3BV8HQ2ZZW1196D85XV17OOOEBK6AN,22,1525363091654,"{""time_elapsed"": 203895, ""trial_index"": 22, ""internal_node_id"": ""0.0-6.0-8.0"", ""group"": ""daxby"", ""correct"": true, ""response"": ""d"", ""rt"": 490, ""color"": ""blue"", ""trial_type"": ""robot""}"
A1ZD8RU6YB0VEU:3BV8HQ2ZZW1196D85XV17OOOEBK6AN,23,1525363096873,"{""time_elapsed"": 209114, ""trial_index"": 23, ""responses"": {""Q0"": ""7099211""}, ""internal_node_id"": ""0.0-7.0"", ""rt"": 4217, ""trial_type"": ""survey-text-force""}"
A1ZD8RU6YB0VEU:3BV8HQ2ZZW1196D85XV17OOOEBK6AN,24,1525363103216,"{""time_elapsed"": 215457, ""trial_index"": 24, ""responses"": 60, ""internal_node_id"": ""0.0-8.0"", ""tag"": ""kizik"", ""trial_type"": ""slider""}"
A1ZD8RU6YB0VEU:3BV8HQ2ZZW1196D85XV17OOOEBK6AN,25,1525363107968,"{""time_elapsed"": 220209, ""trial_index"": 25, ""responses"": 60, ""internal_node_id"": ""0.0-9.0"", ""tag"": ""daxby"", ""trial_type"": ""slider""}"
A1ZD8RU6YB0VEU:3BV8HQ2ZZW1196D85XV17OOOEBK6AN,26,1525363109972,"{""time_elapsed"": 222213, ""trial_index"": 26, ""internal_node_id"": ""0.0-10.0"", ""stimulus"": [""<p>Thanks so much for participating in this research.</p>Your final bonus is $0.09""], ""button_pressed"": 0, ""rt"": 1001, ""trial_type"": ""button-response""}"
A1BQCRF5Q76YFY:30LSNF239UVSXND5UJBBY9VVBENI2M,0,1525362956236,"{""internal_node_id"": ""0.0-0.0"", ""trial_index"": 0, ""time_elapsed"": 20835, ""view_history"": ""[{\""page_index\"":0,\""viewing_time\"":5268},{\""page_index\"":1,\""viewing_time\"":12550},{\""page_index\"":2,\""viewing_time\"":3012}]"", ""rt"": 20831, ""trial_type"": ""instructions""}"
A1BQCRF5Q76YFY:30LSNF239UVSXND5UJBBY9VVBENI2M,1,1525362959710,"{""time_elapsed"": 24309, ""trial_index"": 1, ""internal_node_id"": ""0.0-1.0"", ""stimulus"": ""\n\t\t\t\t<h1>Instructions Complete</h1>\n\n\t\t\t\tYou're now ready to begin seeing robots and predicting where they are from.\n\t\t\t\tYou will see 18 robots in total.\n\t\t\t\tRemember, you earn one cent for each correct prediction. Good luck!\n\t\t\t"", ""button_pressed"": 0, ""rt"": 2459, ""trial_type"": ""button-response""}"
A1BQCRF5Q76YFY:30LSNF239UVSXND5UJBBY9VVBENI2M,2,1525362966433,"{""time_elapsed"": 31032, ""trial_index"": 2, ""internal_node_id"": ""0.0-2.0-3.0"", ""group"": ""daxby"", ""correct"": true, ""response"": ""d"", ""rt"": 2711, ""color"": ""yellow"", ""trial_type"": ""robot""}"
A1BQCRF5Q76YFY:30LSNF239UVSXND5UJBBY9VVBENI2M,3,1525362971929,"{""time_elapsed"": 36528, ""trial_index"": 3, ""internal_node_id"": ""0.0-2.0-8.0"", ""group"": ""daxby"", ""correct"": false, ""response"": ""k"", ""rt"": 1486, ""color"": ""blue"", ""trial_type"": ""robot""}"
A1BQCRF5Q76YFY:30LSNF239UVSXND5UJBBY9VVBENI2M,4,1525362976634,"{""time_elapsed"": 41232, ""trial_index"": 4, ""internal_node_id"": ""0.0-2.0-7.0"", ""group"": ""daxby"", ""correct"": true, ""response"": ""d"", ""rt"": 698, ""color"": ""blue"", ""trial_type"": ""robot""}"
A1BQCRF5Q76YFY:30LSNF239UVSXND5UJBBY9VVBENI2M,5,1525362981040,"{""time_elapsed"": 45639, ""trial_index"": 5, ""internal_node_id"": ""0.0-2.0-1.0"", ""group"": ""daxby"", ""correct"": false, ""response"": ""k"", ""rt"": 402, ""color"": ""yellow"", ""trial_type"": ""robot""}"
A1BQCRF5Q76YFY:30LSNF239UVSXND5UJBBY9VVBENI2M,6,1525362985386,"{""time_elapsed"": 49985, ""trial_index"": 6, ""internal_node_id"": ""0.0-2.0-0.0"", ""group"": ""daxby"", ""correct"": true, ""response"": ""d"", ""rt"": 321, ""color"": ""blue"", ""trial_type"": ""robot""}"
A1BQCRF5Q76YFY:30LSNF239UVSXND5UJBBY9VVBENI2M,7,1525362989736,"{""time_elapsed"": 54335, ""trial_index"": 7, ""internal_node_id"": ""0.0-2.0-2.0"", ""group"": ""daxby"", ""correct"": true, ""response"": ""d"", ""rt"": 346, ""color"": ""blue"", ""trial_type"": ""robot""}"
A1BQCRF5Q76YFY:30LSNF239UVSXND5UJBBY9VVBENI2M,8,1525362994284,"{""time_elapsed"": 58882, ""trial_index"": 8, ""internal_node_id"": ""0.0-2.0-5.0"", ""group"": ""daxby"", ""correct"": true, ""response"": ""d"", ""rt"": 542, ""color"": ""yellow"", ""trial_type"": ""robot""}"
A1BQCRF5Q76YFY:30LSNF239UVSXND5UJBBY9VVBENI2M,9,1525362998921,"{""time_elapsed"": 63520, ""trial_index"": 9, ""internal_node_id"": ""0.0-2.0-4.0"", ""group"": ""daxby"", ""correct"": true, ""response"": ""d"", ""rt"": 633, ""color"": ""yellow"", ""trial_type"": ""robot""}"
A1BQCRF5Q76YFY:30LSNF239UVSXND5UJBBY9VVBENI2M,10,1525363003418,"{""time_elapsed"": 68017, ""trial_index"": 10, ""internal_node_id"": ""0.0-2.0-6.0"", ""group"": ""kizik"", ""correct"": false, ""response"": ""d"", ""rt"": 490, ""color"": ""yellow"", ""trial_type"": ""robot""}"
A1BQCRF5Q76YFY:30LSNF239UVSXND5UJBBY9VVBENI2M,11,1525363007995,"{""time_elapsed"": 72594, ""trial_index"": 11, ""internal_node_id"": ""0.0-3.0-6.0"", ""group"": ""kizik"", ""correct"": false, ""response"": ""d"", ""rt"": 539, ""color"": ""blue"", ""trial_type"": ""robot""}"
A1BQCRF5Q76YFY:30LSNF239UVSXND5UJBBY9VVBENI2M,12,1525363012625,"{""time_elapsed"": 77224, ""trial_index"": 12, ""internal_node_id"": ""0.0-3.0-0.0"", ""group"": ""kizik"", ""correct"": false, ""response"": ""d"", ""rt"": 625, ""color"": ""blue"", ""trial_type"": ""robot""}"
A1BQCRF5Q76YFY:30LSNF239UVSXND5UJBBY9VVBENI2M,13,1525363016880,"{""time_elapsed"": 81479, ""trial_index"": 13, ""internal_node_id"": ""0.0-3.0-5.0"", ""group"": ""daxby"", ""correct"": false, ""response"": ""k"", ""rt"": 236, ""color"": ""blue"", ""trial_type"": ""robot""}"
A1BQCRF5Q76YFY:30LSNF239UVSXND5UJBBY9VVBENI2M,14,1525363021132,"{""time_elapsed"": 85730, ""trial_index"": 14, ""internal_node_id"": ""0.0-3.0-4.0"", ""group"": ""daxby"", ""correct"": true, ""response"": ""d"", ""rt"": 246, ""color"": ""blue"", ""trial_type"": ""robot""}"
A1BQCRF5Q76YFY:30LSNF239UVSXND5UJBBY9VVBENI2M,15,1525363025397,"{""time_elapsed"": 89996, ""trial_index"": 15, ""internal_node_id"": ""0.0-3.0-3.0"", ""group"": ""kizik"", ""correct"": false, ""response"": ""d"", ""rt"": 258, ""color"": ""blue"", ""trial_type"": ""robot""}"
A1BQCRF5Q76YFY:30LSNF239UVSXND5UJBBY9VVBENI2M,16,1525363030464,"{""time_elapsed"": 95061, ""trial_index"": 16, ""internal_node_id"": ""0.0-3.0-2.0"", ""group"": ""kizik"", ""correct"": true, ""response"": ""k"", ""rt"": 1061, ""color"": ""yellow"", ""trial_type"": ""robot""}"
A1BQCRF5Q76YFY:30LSNF239UVSXND5UJBBY9VVBENI2M,17,1525363035055,"{""time_elapsed"": 99654, ""trial_index"": 17, ""internal_node_id"": ""0.0-3.0-8.0"", ""group"": ""daxby"", ""correct"": false, ""response"": ""k"", ""rt"": 587, ""color"": ""blue"", ""trial_type"": ""robot""}"
A1BQCRF5Q76YFY:30LSNF239UVSXND5UJBBY9VVBENI2M,18,1525363039400,"{""time_elapsed"": 103999, ""trial_index"": 18, ""internal_node_id"": ""0.0-3.0-7.0"", ""group"": ""daxby"", ""correct"": true, ""response"": ""d"", ""rt"": 342, ""color"": ""blue"", ""trial_type"": ""robot""}"
A1BQCRF5Q76YFY:30LSNF239UVSXND5UJBBY9VVBENI2M,19,1525363043675,"{""time_elapsed"": 108274, ""trial_index"": 19, ""internal_node_id"": ""0.0-3.0-1.0"", ""group"": ""kizik"", ""correct"": false, ""response"": ""d"", ""rt"": 268, ""color"": ""blue"", ""trial_type"": ""robot""}"
A1BQCRF5Q76YFY:30LSNF239UVSXND5UJBBY9VVBENI2M,20,1525363051174,"{""time_elapsed"": 115773, ""trial_index"": 20, ""responses"": 40, ""internal_node_id"": ""0.0-4.0"", ""tag"": ""kizik"", ""trial_type"": ""slider""}"
A1BQCRF5Q76YFY:30LSNF239UVSXND5UJBBY9VVBENI2M,21,1525363056716,"{""time_elapsed"": 121315, ""trial_index"": 21, ""responses"": 55, ""internal_node_id"": ""0.0-5.0"", ""tag"": ""daxby"", ""trial_type"": ""slider""}"
A1BQCRF5Q76YFY:30LSNF239UVSXND5UJBBY9VVBENI2M,22,1525363059028,"{""time_elapsed"": 123627, ""trial_index"": 22, ""internal_node_id"": ""0.0-6.0"", ""stimulus"": [""<p>Thanks so much for participating in this research.</p>Your final bonus is $0.09""], ""button_pressed"": 0, ""rt"": 1308, ""trial_type"": ""button-response""}"
AIZTLQM7HHQN6:3F6HPJW4JD0AYIXAJ0FQZ043QPL2WD,0,1525362951288,"{""internal_node_id"": ""0.0-0.0"", ""trial_index"": 0, ""time_elapsed"": 22482, ""view_history"": ""[{\""page_index\"":0,\""viewing_time\"":7908},{\""page_index\"":1,\""viewing_time\"":10406},{\""page_index\"":2,\""viewing_time\"":4166}]"", ""rt"": 22480, ""trial_type"": ""instructions""}"
AIZTLQM7HHQN6:3F6HPJW4JD0AYIXAJ0FQZ043QPL2WD,1,1525362982178,"{""time_elapsed"": 53372, ""trial_index"": 1, ""responses"": {""Q0"": ""8814821""}, ""internal_node_id"": ""0.0-1.0"", ""rt"": 29868, ""trial_type"": ""survey-text-force""}"
AIZTLQM7HHQN6:3F6HPJW4JD0AYIXAJ0FQZ043QPL2WD,2,1525362985638,"{""time_elapsed"": 56832, ""trial_index"": 2, ""internal_node_id"": ""0.0-2.0"", ""stimulus"": ""\n\t\t\t\t<h1>Instructions Complete</h1>\n\n\t\t\t\tYou're now ready to begin seeing robots and predicting where they are from.\n\t\t\t\tYou will see 18 robots in total.\n\t\t\t\tRemember, you earn one cent for each correct prediction. Good luck!\n\t\t\t"", ""button_pressed"": 0, ""rt"": 2456, ""trial_type"": ""button-response""}"
AIZTLQM7HHQN6:3F6HPJW4JD0AYIXAJ0FQZ043QPL2WD,3,1525363006140,"{""time_elapsed"": 77334, ""trial_index"": 3, ""internal_node_id"": ""0.0-3.0-5.0"", ""group"": ""daxby"", ""correct"": false, ""response"": ""k"", ""rt"": 16492, ""color"": ""yellow"", ""trial_type"": ""robot""}"
AIZTLQM7HHQN6:3F6HPJW4JD0AYIXAJ0FQZ043QPL2WD,4,1525363011046,"{""time_elapsed"": 82240, ""trial_index"": 4, ""internal_node_id"": ""0.0-3.0-6.0"", ""group"": ""daxby"", ""correct"": false, ""response"": ""k"", ""rt"": 898, ""color"": ""blue"", ""trial_type"": ""robot""}"
AIZTLQM7HHQN6:3F6HPJW4JD0AYIXAJ0FQZ043QPL2WD,5,1525363016276,"{""time_elapsed"": 87470, ""trial_index"": 5, ""internal_node_id"": ""0.0-3.0-4.0"", ""group"": ""daxby"", ""correct"": true, ""response"": ""d"", ""rt"": 1224, ""color"": ""blue"", ""trial_type"": ""robot""}"
AIZTLQM7HHQN6:3F6HPJW4JD0AYIXAJ0FQZ043QPL2WD,6,1525363021360,"{""time_elapsed"": 92554, ""trial_index"": 6, ""internal_node_id"": ""0.0-3.0-2.0"", ""group"": ""kizik"", ""correct"": false, ""response"": ""d"", ""rt"": 1080, ""color"": ""blue"", ""trial_type"": ""robot""}"
AIZTLQM7HHQN6:3F6HPJW4JD0AYIXAJ0FQZ043QPL2WD,7,1525363026692,"{""time_elapsed"": 97886, ""trial_index"": 7, ""internal_node_id"": ""0.0-3.0-7.0"", ""group"": ""daxby"", ""correct"": true, ""response"": ""d"", ""rt"": 1328, ""color"": ""yellow"", ""trial_type"": ""robot""}"
AIZTLQM7HHQN6:3F6HPJW4JD0AYIXAJ0FQZ043QPL2WD,8,1525363032708,"{""time_elapsed"": 103902, ""trial_index"": 8, ""internal_node_id"": ""0.0-3.0-8.0"", ""group"": ""kizik"", ""correct"": false, ""response"": ""d"", ""rt"": 2010, ""color"": ""yellow"", ""trial_type"": ""robot""}"
AIZTLQM7HHQN6:3F6HPJW4JD0AYIXAJ0FQZ043QPL2WD,9,1525363049184,"{""time_elapsed"": 120378, ""trial_index"": 9, ""internal_node_id"": ""0.0-3.0-1.0"", ""group"": ""kizik"", ""correct"": false, ""response"": ""d"", ""rt"": 12470, ""color"": ""blue"", ""trial_type"": ""robot""}"
AIZTLQM7HHQN6:3F6HPJW4JD0AYIXAJ0FQZ043QPL2WD,10,1525363060078,"{""time_elapsed"": 131270, ""trial_index"": 10, ""internal_node_id"": ""0.0-3.0-3.0"", ""group"": ""daxby"", ""correct"": true, ""response"": ""d"", ""rt"": 6890, ""color"": ""blue"", ""trial_type"": ""robot""}"
AIZTLQM7HHQN6:3F6HPJW4JD0AYIXAJ0FQZ043QPL2WD,11,1525363081514,"{""time_elapsed"": 152708, ""trial_index"": 11, ""internal_node_id"": ""0.0-3.0-0.0"", ""group"": ""daxby"", ""correct"": false, ""response"": ""k"", ""rt"": 17434, ""color"": ""yellow"", ""trial_type"": ""robot""}"
AIZTLQM7HHQN6:3F6HPJW4JD0AYIXAJ0FQZ043QPL2WD,12,1525363088412,"{""time_elapsed"": 159606, ""trial_index"": 12, ""responses"": {""Q0"": ""884182""}, ""internal_node_id"": ""0.0-4.0"", ""rt"": 5894, ""trial_type"": ""survey-text-force""}"
AIZTLQM7HHQN6:3F6HPJW4JD0AYIXAJ0FQZ043QPL2WD,13,1525363095778,"{""time_elapsed"": 166970, ""trial_index"": 13, ""internal_node_id"": ""0.0-5.0"", ""stimulus"": ""\n\t\t\t\t<strong style='color: red'>Incorrect!</strong><br>\n\t\t\t\tThe number was <b>8814821</b>.<br>\n\t\t\t\tPlease keep the number in memory because we will ask you to recall it again.\n\t\t\t"", ""button_pressed"": 0, ""rt"": 6360, ""trial_type"": ""button-response""}"
AIZTLQM7HHQN6:3F6HPJW4JD0AYIXAJ0FQZ043QPL2WD,14,1525363107206,"{""time_elapsed"": 178400, ""trial_index"": 14, ""internal_node_id"": ""0.0-6.0-4.0"", ""group"": ""daxby"", ""correct"": true, ""response"": ""d"", ""rt"": 7426, ""color"": ""yellow"", ""trial_type"": ""robot""}"
AIZTLQM7HHQN6:3F6HPJW4JD0AYIXAJ0FQZ043QPL2WD,15,1525363111788,"{""time_elapsed"": 182982, ""trial_index"": 15, ""internal_node_id"": ""0.0-6.0-8.0"", ""group"": ""kizik"", ""correct"": true, ""response"": ""k"", ""rt"": 574, ""color"": ""blue"", ""trial_type"": ""robot""}"
AIZTLQM7HHQN6:3F6HPJW4JD0AYIXAJ0FQZ043QPL2WD,16,1525363116310,"{""time_elapsed"": 187504, ""trial_index"": 16, ""internal_node_id"": ""0.0-6.0-0.0"", ""group"": ""kizik"", ""correct"": false, ""response"": ""d"", ""rt"": 516, ""color"": ""blue"", ""trial_type"": ""robot""}"
AIZTLQM7HHQN6:3F6HPJW4JD0AYIXAJ0FQZ043QPL2WD,17,1525363120774,"{""time_elapsed"": 191968, ""trial_index"": 17, ""internal_node_id"": ""0.0-6.0-7.0"", ""group"": ""kizik"", ""correct"": false, ""response"": ""d"", ""rt"": 460, ""color"": ""yellow"", ""trial_type"": ""robot""}"
AIZTLQM7HHQN6:3F6HPJW4JD0AYIXAJ0FQZ043QPL2WD,18,1525363125182,"{""time_elapsed"": 196374, ""trial_index"": 18, ""internal_node_id"": ""0.0-6.0-2.0"", ""group"": ""daxby"", ""correct"": true, ""response"": ""d"", ""rt"": 404, ""color"": ""blue"", ""trial_type"": ""robot""}"
AIZTLQM7HHQN6:3F6HPJW4JD0AYIXAJ0FQZ043QPL2WD,19,1525363129742,"{""time_elapsed"": 200936, ""trial_index"": 19, ""internal_node_id"": ""0.0-6.0-5.0"", ""group"": ""daxby"", ""correct"": true, ""response"": ""d"", ""rt"": 558, ""color"": ""blue"", ""trial_type"": ""robot""}"
AIZTLQM7HHQN6:3F6HPJW4JD0AYIXAJ0FQZ043QPL2WD,20,1525363134462,"{""time_elapsed"": 205656, ""trial_index"": 20, ""internal_node_id"": ""0.0-6.0-6.0"", ""group"": ""daxby"", ""correct"": true, ""response"": ""d"", ""rt"": 716, ""color"": ""blue"", ""trial_type"": ""robot""}"
AIZTLQM7HHQN6:3F6HPJW4JD0AYIXAJ0FQZ043QPL2WD,21,1525363139068,"{""time_elapsed"": 210262, ""trial_index"": 21, ""internal_node_id"": ""0.0-6.0-1.0"", ""group"": ""daxby"", ""correct"": true, ""response"": ""d"", ""rt"": 602, ""color"": ""blue"", ""trial_type"": ""robot""}"
AIZTLQM7HHQN6:3F6HPJW4JD0AYIXAJ0FQZ043QPL2WD,22,1525363143656,"{""time_elapsed"": 214850, ""trial_index"": 22, ""internal_node_id"": ""0.0-6.0-3.0"", ""group"": ""daxby"", ""correct"": true, ""response"": ""d"", ""rt"": 584, ""color"": ""blue"", ""trial_type"": ""robot""}"
AIZTLQM7HHQN6:3F6HPJW4JD0AYIXAJ0FQZ043QPL2WD,23,1525363149550,"{""time_elapsed"": 220744, ""trial_index"": 23, ""responses"": {""Q0"": ""8814821""}, ""internal_node_id"": ""0.0-7.0"", ""rt"": 4892, ""trial_type"": ""survey-text-force""}"
AIZTLQM7HHQN6:3F6HPJW4JD0AYIXAJ0FQZ043QPL2WD,24,1525363165798,"{""time_elapsed"": 236992, ""trial_index"": 24, ""responses"": 46, ""internal_node_id"": ""0.0-8.0"", ""tag"": ""kizik"", ""trial_type"": ""slider""}"
AIZTLQM7HHQN6:3F6HPJW4JD0AYIXAJ0FQZ043QPL2WD,25,1525363178192,"{""time_elapsed"": 249386, ""trial_index"": 25, ""responses"": 21, ""internal_node_id"": ""0.0-9.0"", ""tag"": ""daxby"", ""trial_type"": ""slider""}"
AIZTLQM7HHQN6:3F6HPJW4JD0AYIXAJ0FQZ043QPL2WD,26,1525363180354,"{""time_elapsed"": 251548, ""trial_index"": 26, ""internal_node_id"": ""0.0-10.0"", ""stimulus"": [""<p>Thanks so much for participating in this research.</p>Your final bonus is $0.10""], ""button_pressed"": 0, ""rt"": 1158, ""trial_type"": ""button-response""}"
AHIM8PGYOIN0K:3KGTPGBS6XLX6E85O00PHCJ659A2UE,0,1525362924814,"{""internal_node_id"": ""0.0-0.0"", ""trial_index"": 0, ""time_elapsed"": 25962, ""view_history"": ""[{\""page_index\"":0,\""viewing_time\"":6711},{\""page_index\"":1,\""viewing_time\"":11427},{\""page_index\"":2,\""viewing_time\"":7823}]"", ""rt"": 25961, ""trial_type"": ""instructions""}"
AHIM8PGYOIN0K:3KGTPGBS6XLX6E85O00PHCJ659A2UE,1,1525362929395,"{""time_elapsed"": 30543, ""trial_index"": 1, ""internal_node_id"": ""0.0-1.0"", ""stimulus"": ""\n\t\t\t\t<h1>Instructions Complete</h1>\n\n\t\t\t\tYou're now ready to begin seeing robots and predicting where they are from.\n\t\t\t\tYou will see 18 robots in total.\n\t\t\t\tRemember, you earn one cent for each correct prediction. Good luck!\n\t\t\t"", ""button_pressed"": 0, ""rt"": 3577, ""trial_type"": ""button-response""}"
AHIM8PGYOIN0K:3KGTPGBS6XLX6E85O00PHCJ659A2UE,2,1525362937417,"{""time_elapsed"": 38565, ""trial_index"": 2, ""internal_node_id"": ""0.0-2.0-3.0"", ""group"": ""kizik"", ""correct"": false, ""response"": ""d"", ""rt"": 4018, ""color"": ""yellow"", ""trial_type"": ""robot""}"
AHIM8PGYOIN0K:3KGTPGBS6XLX6E85O00PHCJ659A2UE,3,1525362944286,"{""time_elapsed"": 45434, ""trial_index"": 3, ""internal_node_id"": ""0.0-2.0-0.0"", ""group"": ""daxby"", ""correct"": false, ""response"": ""k"", ""rt"": 2866, ""color"": ""yellow"", ""trial_type"": ""robot""}"
AHIM8PGYOIN0K:3KGTPGBS6XLX6E85O00PHCJ659A2UE,4,1525362950175,"{""time_elapsed"": 51322, ""trial_index"": 4, ""internal_node_id"": ""0.0-2.0-5.0"", ""group"": ""daxby"", ""correct"": true, ""response"": ""d"", ""rt"": 1886, ""color"": ""blue"", ""trial_type"": ""robot""}"
AHIM8PGYOIN0K:3KGTPGBS6XLX6E85O00PHCJ659A2UE,5,1525362955346,"{""time_elapsed"": 56494, ""trial_index"": 5, ""internal_node_id"": ""0.0-2.0-1.0"", ""group"": ""daxby"", ""correct"": true, ""response"": ""d"", ""rt"": 1169, ""color"": ""blue"", ""trial_type"": ""robot""}"
AHIM8PGYOIN0K:3KGTPGBS6XLX6E85O00PHCJ659A2UE,6,1525362960274,"{""time_elapsed"": 61422, ""trial_index"": 6, ""internal_node_id"": ""0.0-2.0-8.0"", ""group"": ""daxby"", ""correct"": true, ""response"": ""d"", ""rt"": 925, ""color"": ""blue"", ""trial_type"": ""robot""}"
AHIM8PGYOIN0K:3KGTPGBS6XLX6E85O00PHCJ659A2UE,7,1525362965157,"{""time_elapsed"": 66305, ""trial_index"": 7, ""internal_node_id"": ""0.0-2.0-7.0"", ""group"": ""kizik"", ""correct"": false, ""response"": ""d"", ""rt"": 879, ""color"": ""blue"", ""trial_type"": ""robot""}"
AHIM8PGYOIN0K:3KGTPGBS6XLX6E85O00PHCJ659A2UE,8,1525362969763,"{""time_elapsed"": 70911, ""trial_index"": 8, ""internal_node_id"": ""0.0-2.0-4.0"", ""group"": ""kizik"", ""correct"": true, ""response"": ""k"", ""rt"": 601, ""color"": ""blue"", ""trial_type"": ""robot""}"
AHIM8PGYOIN0K:3KGTPGBS6XLX6E85O00PHCJ659A2UE,9,1525362974559,"{""time_elapsed"": 75707, ""trial_index"": 9, ""internal_node_id"": ""0.0-2.0-6.0"", ""group"": ""kizik"", ""correct"": true, ""response"": ""k"", ""rt"": 793, ""color"": ""blue"", ""trial_type"": ""robot""}"
AHIM8PGYOIN0K:3KGTPGBS6XLX6E85O00PHCJ659A2UE,10,1525362979465,"{""time_elapsed"": 80613, ""trial_index"": 10, ""internal_node_id"": ""0.0-2.0-2.0"", ""group"": ""kizik"", ""correct"": true, ""response"": ""k"", ""rt"": 903, ""color"": ""blue"", ""trial_type"": ""robot""}"
